time,seconds_elapsed,accel_z,accel_y,accel_x,gyro_x,gyro_y,gyro_z,activity,member
1772702273768593400,0.081593505859375,0.100074239167571,0.0169908777228323,-0.078456153735239,0.0366626679897308,0.0558816157281398,0.0070318817161023,still,queen
1772702273778541300,0.091541259765625,0.0676256755053997,0.0059379295484628,-0.0813378283850848,0.0680091381072998,0.0647797733545303,0.0078089921735227,still,queen
1772702273788489200,0.1014892578125,-0.0064133741736412,-0.0238079053604975,-0.0442201358341379,0.0910593643784523,0.0370289161801338,0.0086699724197387,still,queen
1772702273798436000,0.11143603515625,-0.0418383232980966,-0.0266979825125075,0.0128075116405612,0.1113734245300293,-0.0006721206009387,0.0077951229177415,still,queen
1772702273808384300,0.12138427734375,-0.0118739776670932,0.0190095720179262,0.0889258723612874,0.118867740035057,-0.0221985466778278,0.0039871931076049,still,queen
1772702273818332200,0.131332275390625,0.0098515319287776,0.0660424066356383,0.0958091290690004,0.1247128471732139,-0.0260835662484169,0.0002028411254286,still,queen
1772702273828280300,0.1412802734375,0.0303653276473283,0.0780717757938429,0.0158970157882315,0.1288637369871139,-0.0256677512079477,-0.0045401062816381,still,queen
1772702273838228200,0.151228271484375,0.049215574067831,0.0670660779944155,-0.0679509162712376,0.1263483762741089,-0.0129855126142501,-0.0062322788871824,still,queen
1772702273848176000,0.161176025390625,0.0788221923023462,0.0358033950819866,-0.1168774899303913,0.1251444816589355,0.0132253617048263,-0.0103495623916387,still,queen
1772702273858123300,0.171123291015625,0.0796826085239648,0.0028505442926427,-0.0945504981768783,0.1099884212017059,0.0411129221320152,-0.0062847794033586,still,queen
1772702273868071400,0.181071533203125,0.1230313363850116,-0.0308770811283262,-0.0218948633969645,0.0780329704284668,0.0512056574225425,-0.0025192720349878,still,queen
1772702273878019300,0.191019287109375,0.1274859777063131,-0.0689076096412958,0.0566765667314175,0.0229803714901208,0.0348740890622139,0.0020890617743134,still,queen
1772702273887967200,0.20096728515625,0.161153269508481,-0.0992443824809975,0.0854313447764143,-0.0358606465160846,-0.0017614834941923,-0.0024473380763083,still,queen
1772702273897915400,0.210915283203125,0.1210813713610172,-0.1069252193071879,0.0529203057707054,-0.0641721785068512,-0.0488030277192592,-0.0006766023579984,still,queen
1772702273907863000,0.220863037109375,0.0533364533901214,-0.0892271020638756,0.0119661232047539,-0.0788961946964263,-0.0589653216302394,-0.0011338957119733,still,queen
1772702273917811200,0.230811279296875,0.0689320819288492,-0.043731078242138,-0.0439364052556222,-0.0811276584863662,-0.0280311070382595,0.0020435219630599,still,queen
1772702273927758300,0.24075830078125,0.1027706386446952,-0.0004508536066161,-0.0636947520975256,-0.0798450782895088,0.0189033783972263,0.0058116288855671,still,queen
1772702273937706200,0.250706298828125,0.1163958438932895,0.0340338098598876,-0.040425132031925,-0.0755778923630714,0.0428864769637584,0.0034693786874413,still,queen
1772702273947654100,0.260654052734375,0.0697089115202426,0.0538687656019581,-0.0070307206206955,-0.0675157085061073,0.0292380414903163,0.0068244282156229,still,queen
1772702273957602300,0.270602294921875,0.0113496615320444,0.0409698927333811,0.021474603574723,-0.058322474360466,-0.0115647818893194,0.001638454850763,still,queen
1772702273967550200,0.28055029296875,-0.0211176068305969,0.0098079188326257,0.0225815464698942,-0.0441087782382965,-0.0414602607488632,-0.0006243926472961,still,queen
1772702273977498400,0.290498291015625,-0.009890110373497,-0.0098760635818354,-0.007854128158529,-0.0296866968274116,-0.0401792787015438,-0.0045962310396134,still,queen
1772702273987445200,0.3004453125,0.021385902377963,-0.0374957754655857,-0.0205921033854596,-0.0111736841499805,-0.0086610289290547,-0.0054163224995136,still,queen
1772702273997393400,0.310393310546875,0.0656774640470743,-0.0481096997517393,-0.0268413639054168,0.0038425491657108,0.0242351368069648,-0.005017114803195,still,queen
1772702274007341000,0.320341064453125,0.0616343261361122,-0.0362917996534379,-0.0071762209054548,0.0182650294154882,0.0361100696027278,-0.0017577111721038,still,queen
1772702274017289200,0.330289306640625,0.0314046075671911,-0.0060376510378031,0.0078777008303615,0.0319512821733951,0.0193228349089622,0.0001395246945321,still,queen
1772702274027237000,0.340237060546875,0.0037239889591932,0.0044421160561018,0.0162565115917648,0.0412387885153293,-0.019883157685399,0.0017446121200919,still,queen
1772702274037185300,0.350185302734375,0.002232289096713,0.0291287578899646,-0.0089679848516767,0.0478500872850418,-0.0303605645895004,0.002435169648379,still,queen
1772702274047132200,0.360132080078125,0.0302156900435686,0.048638349568611,-0.030361895864515,0.0503364279866218,-0.0109830414876341,-0.0024899861309677,still,queen
1772702274057080300,0.370080322265625,0.0634299773812294,0.0454044456813018,-0.0296461716434801,0.058034561574459,0.0219812989234924,-0.0016170020680874,still,queen
1772702274067028200,0.3800283203125,0.1023240639209747,0.0382577842304715,-0.0160313336669176,0.0537773929536342,0.031028838828206,-0.0018839128315448,still,queen
1772702274076976400,0.389976318359375,0.0734299778699874,0.0040279951407574,0.0107207799108233,0.050275333225727,0.0175660271197557,-0.0032122975680977,still,queen
1772702274086924300,0.39992431640625,0.0327168592095375,-0.02575291793145,0.0166812112687504,0.0427881218492984,-0.0109388511627912,-0.0042935409583151,still,queen
1772702274096872400,0.40987255859375,0.031363691034913,-0.0489999128900002,0.0010835905606916,0.0292211826890707,-0.0278067793697118,0.0003619310446083,still,queen
1772702274106819000,0.419819091796875,0.0615875643849372,-0.073661859530257,-0.0176239206375845,0.0118963010609149,-0.0168913006782531,0.0010447604581713,still,queen
1772702274116767200,0.429767333984375,0.1072270335316658,-0.0853067320160567,-0.0314884910249384,-0.0033787926658988,0.0088936910033226,0.000332897529006,still,queen
1772702274126715100,0.439715087890625,0.1319189917176962,-0.0698302728775888,-0.0262856388519518,-0.021756362169981,0.0271520316600799,-0.0022231638431549,still,queen
1772702274136663300,0.449663330078125,0.1091781675994396,-0.0285045204778201,-0.0081384946329286,-0.0351435393095016,0.0202579069882631,-0.003829582594335,still,queen
1772702274146611200,0.459611083984375,0.0705798491358757,0.0097256496599409,0.0100664008054533,-0.0405710637569427,-0.0068400236777961,-0.0066496040672063,still,queen
1772702274156559000,0.46955908203125,0.0403653281360864,0.0415038671793416,0.0147731902569183,-0.0440755151212215,-0.0232237912714481,-0.005618161521852,still,queen
1772702274166506200,0.47950634765625,0.0334936888009309,0.0537174063985701,-0.0017136206760944,-0.0432859696447849,-0.0268698167055845,-0.002864250447601,still,queen
1772702274176454400,0.489454345703125,0.054301499029994,0.0475961835719179,-0.0275621159280184,-0.036576934158802,-0.0074393940158188,0.0007272884249687,still,queen
1772702274186402300,0.49940234375,0.086027009114623,0.0256132149165263,-0.0321964337983168,-0.030881842598319,0.0189005099236965,0.0014997301623225,still,queen
1772702274196350500,0.5093505859375,0.0788432350903749,-0.0100672730217105,-0.0132289804641332,-0.0165207479149103,0.0225402507930994,0.0027072075754404,still,queen
1772702274206298400,0.51929833984375,0.0432265627861022,-0.033340959624364,0.0034959477904019,-0.0075635253451764,0.0125965327024459,0.0031403396278619,still,queen
1772702274216246300,0.529246337890625,0.0031242695003747,-0.0591497016795678,0.0220187614879803,0.0022709963377565,-0.0122403725981712,0.00248893070966,still,queen
1772702274226193200,0.539193115234375,0.0001338555127382,-0.0614094039395917,0.0133716802953858,0.0169853810220956,-0.025395369157195,0.0015350212343037,still,queen
1772702274236141300,0.549141357421875,0.0171942959070205,-0.0464122070848941,-0.013473512685066,0.026016691699624,-0.0169190596789121,-0.0023811571300029,still,queen
1772702274246089200,0.559089111328125,0.0610363602429628,-0.0150142142048687,-0.0281134799001971,0.029913954436779,0.0074373194947838,-0.0029570241458714,still,queen
1772702274256037000,0.569037109375,0.075844053274393,0.0166047964481171,-0.0332149631910957,0.0321496799588203,0.0224490258842706,-0.0028704714495688,still,queen
1772702274265985300,0.5789853515625,0.0611713847994804,0.0371424342665588,-0.0100018727854359,0.0307034160941839,0.0175520200282335,-0.0034871995449066,still,queen
1772702274275933200,0.58893310546875,0.0581710339397191,0.0553378015414811,0.0112141323687392,0.0255089197307825,0.0022388428915292,-0.0012884938623756,still,queen
1772702274285881300,0.59888134765625,0.0367699339926242,0.0387589386856416,0.0153299051160051,0.018538536503911,-0.0171600747853517,0.0013603176921606,still,queen
1772702274295828200,0.608828125,0.0527805730730295,0.0183392829573713,-0.0013294219728559,0.0124249830842018,-0.0190823450684547,0.0010471302084624,still,queen
1772702274305776400,0.6187763671875,0.0833054751962423,-0.0152093851505196,-0.0118095044460031,0.0056620086543262,-0.0027429815381765,-0.0001290529035031,still,queen
1772702274315724000,0.62872412109375,0.1009615433961153,-0.0523997570618987,-0.0245079068560153,-0.0008371695876121,0.0140336016193032,-0.0004465016536414,still,queen
1772702274325672200,0.638672119140625,0.096170801988244,-0.0672227937929332,-0.0183089962753176,-0.0070346728898584,0.0187601447105407,-0.0001877099275588,still,queen
1772702274335620000,0.6486201171875,0.0722287853866815,-0.0723838572173845,-0.0049735095296753,-0.0091734584420919,0.0062747127376496,-0.0005690744146704,still,queen
1772702274345568300,0.658568359375,0.0494867922246456,-0.0616929472884396,0.0171879757640883,-0.0157647375017404,-0.012206045910716,-0.0035952306352555,still,queen
1772702274355515100,0.66851513671875,0.0502414099842309,-0.0304676395276212,0.0135382085267978,-0.0141929388046264,-0.0193968471139669,-0.0006087617948651,still,queen
1772702274365463300,0.67846337890625,0.0453097988009452,-0.0001504025054513,-0.0067812382300093,-0.0204440541565418,-0.0095332916826009,-0.0032424153760075,still,queen
1772702274375411200,0.6884111328125,0.0683586659550666,0.0321795420290203,-0.0216715189528884,-0.0220081284642219,0.0022767616901546,-0.0016639598179608,still,queen
1772702274385359400,0.698359375,0.0855693284749984,0.0440542320821667,-0.0235485899873194,-0.0244971830397844,0.0101783238351345,-0.0001758537255227,still,queen
1772702274395307300,0.708307373046875,0.0840741214811801,0.0377295750883058,-0.0169617429598933,-0.0218414794653654,0.012226827442646,-0.0005036890506744,still,queen
1772702274405255400,0.71825537109375,0.0423263990759849,0.0130954674446897,-0.002757639561512,-0.0168515760451555,0.0022958642803132,0.0019455533474683,still,queen
1772702274415202300,0.728202392578125,0.0330506212085485,-0.0155383613765588,0.010427929877513,-0.0123833231627941,-0.0073801986873149,-0.0016313383821398,still,queen
1772702274425150500,0.738150390625,0.0285638311833143,-0.0447701252665603,0.0014772557785967,-0.0056303883902728,-0.0113554131239652,-0.0028591267764568,still,queen
1772702274435098400,0.748098388671875,0.0505628970235586,-0.0626454987729201,-0.0012945310392766,-0.0038852193392813,-0.0085934493690729,-0.006314312107861,still,queen
1772702274445046300,0.75804638671875,0.0517611668974161,-0.0778019641428254,-0.004073429159593,-0.004032774362713,-3.70335765182e-05,-0.0080896485596895,still,queen
1772702274454994200,0.767994140625,0.0713631084680557,-0.0502829749704804,-0.0251068705462967,-0.0094504430890083,0.0067441733554005,-0.0115040875971317,still,queen
1772702274464942300,0.7779423828125,0.0776478878259658,-0.0214795948436716,-0.02114087810833,-0.017278479412198,0.0053329332731664,-0.0099129704758524,still,queen
1772702274474889200,0.78788916015625,0.0580465307772159,0.0217833567133522,-0.004499604982679,-0.0257412083446979,-0.003288784995675,-0.0070391530171036,still,queen
1772702274484837400,0.79783740234375,0.0552051698714494,0.0545264988583279,-0.0028991886152944,-0.0350182279944419,-0.0131754903122782,-0.0052957879379391,still,queen
1772702274494785300,0.807785400390625,0.0751081402152776,0.0505041936728404,-0.0032384099574235,-0.0471627749502658,-0.0133219631388783,-0.0013998493086546,still,queen
1772702274504733400,0.8177333984375,0.0733101508826017,0.0328951132697169,-0.008431421156408,-0.0525968633592128,-0.0051213707774877,-0.0031881937757134,still,queen
1772702274514681300,0.827681396484375,0.0807861858516931,0.0036512936157407,-0.0122945388834341,-0.0609898157417774,0.0021384058054536,0.0007213265635073,still,queen
1772702274524629200,0.837629150390625,0.0788297910869121,-0.0334071110625984,-0.0282437848991132,-0.0614952072501182,0.0062786214984953,-0.0012017705012112,still,queen
1772702274534577400,0.847577392578125,0.0598117868840694,-0.0645842300168471,-0.0254819486530963,-0.0582368299365043,0.0053569013252854,-0.0009461070876568,still,queen
1772702274544524300,0.857524169921875,0.0427379024863243,-0.0802283875721506,-0.0122702743751462,-0.0490582361817359,-0.0061875409446656,0.0009781192056834,still,queen
1772702274554472200,0.86747216796875,0.0205786776483058,-0.0701279954488389,-0.0060121352873451,-0.0394423604011535,-0.0133783426135778,0.0061055035330355,still,queen
1772702274564420000,0.877420166015625,0.0258048878639936,-0.0356177363167749,-0.0041983650052919,-0.0284333154559135,-0.0092013776302337,0.0042521813884377,still,queen
1772702274574368300,0.8873681640625,0.0471942973732948,0.0046345644654706,-0.0038408248384715,-0.013129461556673,0.0024568769149482,-0.0002485611476004,still,queen
1772702274584316200,0.897316162109375,0.0974842226743698,0.0638649118995061,-0.0072355704268557,0.0795530825853347,-0.0344840250909328,-0.0147173246368765,still,queen
1772702274594264300,0.907264404296875,-0.177802206492424,0.1605977362512611,0.0186318464379583,0.1944825947284698,-0.0517442375421524,-0.0268869064748287,still,queen
1772702274604211500,0.91721142578125,-0.2846107223510742,0.1951861066874116,0.0202998036247096,0.3064603805541992,-0.0142241716384887,-0.0292491875588893,still,queen
1772702274614159400,0.927159423828125,-0.0654512540757656,0.1202418335306458,-0.0504654645310714,0.386940062046051,0.0538443624973297,-0.0286422558128833,still,queen
1772702274624107300,0.937107177734375,-0.0030927053183317,0.058192391821579,-0.0836718790895305,0.291068285703659,0.104979433119297,-0.0131789352744817,still,queen
1772702274634055400,0.947055419921875,0.2220154422283172,-0.1466049763319082,-0.0536230380794266,-0.0939502269029617,0.1246980130672454,-0.000973402056843,still,queen
1772702274644003300,0.95700341796875,1.1480775637120009,-0.4386485338311642,-0.0496862009539967,-0.2514703273773193,0.0796820521354675,-0.0071279755793511,still,queen
1772702274653951500,0.966951416015625,0.1876461396366357,-0.1732626451003365,0.0364009203004301,-0.1765965968370437,0.0041151195764541,0.0010340805165469,still,queen
1772702274663898000,0.976898193359375,-0.3747948511451482,0.0735259033919777,0.1044433393635787,-0.0590488798916339,-0.0392406024038791,0.0077099902555346,still,queen
1772702274673846300,0.98684619140625,-0.2555214059889316,0.1202732515822164,0.0642741685538319,0.0493295229971408,-0.0171637944877147,0.008397351950407,still,queen
1772702274683794200,0.996794189453125,-0.1466138720244169,0.1530133090042509,-0.0191632327762548,0.1191319227218627,0.0272233299911022,0.0104900998994708,still,queen
1772702274693742300,1.006742431640625,0.0050637131303548,0.1167524022459983,-0.057048701679171,0.1056808307766914,-0.0012202938087284,0.0050971983000636,still,queen
1772702274703690200,1.016690185546875,0.1132365030795335,0.017112682038173,-0.0032723932837718,0.0149541674181818,-0.0866982638835907,0.0011773626320064,still,queen
1772702274713638400,1.026638427734375,0.1675958697766065,-0.0570393264960497,0.0458493399045895,-0.0650759562849998,-0.1151093989610672,0.0022357027046382,still,queen
1772702274723585300,1.036585205078125,0.2014683287620544,-0.1150883049586787,0.0083969537728698,-0.1016474142670631,-0.0766015201807022,0.0080296378582715,still,queen
1772702274733533400,1.046533447265625,0.1636521005868911,-0.1124782503244467,-0.026910775879817,-0.1101602092385292,-0.0035275756381452,0.0139849968254566,still,queen
1772702274743481300,1.0564814453125,0.15559738894701,-0.1216601758959703,-0.0461062007424887,-0.1104961261153221,0.0529666431248188,0.0111986612901091,still,queen
1772702274753429200,1.06642919921875,0.1156529165714979,-0.0910235935592092,-0.0266634820212842,-0.1057655587792396,0.0562790855765342,0.0096947746351361,still,queen
1772702274763377200,1.076377197265625,0.0412801048934459,-0.0675118398673832,0.0039240712586906,-0.1013194248080253,0.0210368447005748,0.0067034177482128,still,queen
1772702274773325300,1.0863251953125,-0.0060100540697574,-0.0222840202614665,0.0209907747136894,-0.0973348021507263,-0.0279320292174816,0.0047931326553225,still,queen
1772702274783273200,1.096273193359375,-0.0278641584813594,0.0173584620763431,0.0286004962321603,-0.0877172648906707,-0.0512495674192905,0.0028893062844872,still,queen
1772702274793220400,1.106220458984375,0.0128244102597236,0.0517173642883077,0.0015395404675335,-0.0765397101640701,-0.0414009317755699,0.0011422727257013,still,queen
1772702274803168300,1.116168212890625,0.0665256053090095,0.0698332046201918,-0.0288668350011692,-0.063017226755619,-0.0054175062105059,-0.0004023639485239,still,queen
1772702274813116400,1.126116455078125,0.0739864427089691,0.0531248747323639,-0.0536455650050658,-0.0434877350926399,0.0259353555738925,-0.0021659089252352,still,queen
1772702274823064300,1.136064208984375,0.0558633415192365,0.0288022476156475,-0.0459609105202835,-0.0226813685148954,0.0317862778902053,-0.0012598666362464,still,queen
1772702274833012200,1.14601220703125,0.014705401700735,-0.00896149688703,-0.015802340366767,0.001426896546036,0.0154168913140892,0.000737770460546,still,queen
1772702274842960400,1.15596044921875,-0.016563012266159,-0.0393072750170947,0.0160992032798472,0.0255148224532604,-0.0132503882050514,0.0019837263971567,still,queen
1772702274852907300,1.1659072265625,-0.0391413392990827,-0.0412859638120746,0.0252262408759561,0.0474752485752105,-0.0255816224962472,0.0006638634949922,still,queen
1772702274862855200,1.175855224609375,0.0078670801132917,-0.0333306208934402,0.0015202866361476,0.0616126284003257,-0.0145479748025536,0.0009468644857406,still,queen
1772702274872803300,1.18580322265625,0.0506838930547237,-0.0162514666655333,-0.0141764345067436,0.0700833424925804,0.0012821205891668,-0.0012915225233882,still,queen
1772702274882751200,1.195751220703125,0.0638677842766046,0.0005646709783235,-0.0226194079619832,0.0751271173357963,0.0181972160935401,-0.0007344854529947,still,queen
1772702274892699100,1.20569921875,0.065972647601366,0.037184533542348,-0.029037755138264,0.0707837641239166,0.0145814437419176,0.0021467884071171,still,queen
1772702274902647300,1.215647216796875,0.0559521888464689,0.0558517332798335,-0.0166888054867391,0.0662727952003479,0.0045935739763081,0.0004896316677331,still,queen
1772702274912594400,1.225594482421875,0.0409913510799407,0.052488933182694,0.0042666204940003,0.0594599023461341,-0.0075416518375277,0.0025429287925362,still,queen
1772702274922542300,1.235542236328125,0.0610427899837493,0.0370341356034739,0.0027742972937237,0.0523631311953067,-0.0116766178980469,-0.0006430142093449,still,queen
1772702274932490200,1.245490234375,0.0715144996374845,0.0134748906497552,0.0001557899249775,0.0449938960373401,-0.0033885948359966,-0.0005559287965297,still,queen
1772702274942438400,1.2554384765625,0.0819844557255506,-0.0272980718640843,-0.0204677783194696,0.0360597819089889,0.0076463846489787,0.0008605141192674,still,queen
1772702274952386300,1.26538623046875,0.089909988027811,-0.0571517830277327,-0.0250810945009347,0.025362929329276,0.0081523852422833,0.0017542708665132,still,queen
1772702274962334500,1.27533447265625,0.0849666864067316,-0.0652779981344006,-0.0058838304492703,0.0149133056402206,0.0079877646639943,-0.0011656305287033,still,queen
1772702274972282400,1.285282470703125,0.0848152952373027,-0.0629488428007811,-0.0033171582990384,0.0017674094997346,-0.000826499890536,-0.0010939915664494,still,queen
1772702274982229200,1.295229248046875,0.0703016167163848,-0.0446671078500803,0.0014285612235951,-0.0115013774484395,-0.0060325609520077,0.0009761941619217,still,queen
1772702274992177200,1.30517724609375,0.0852700532674789,-0.0221831171702593,0.0040451140972727,-0.0241966657340526,-0.0076144794002175,-0.000154317356646,still,queen
1772702275002125300,1.315125244140625,0.0724064800411462,0.0015375014907855,-0.0034263611444213,-0.0358150675892829,-0.0024422742426395,0.0011780941858887,still,queen
1772702275012073200,1.3250732421875,0.0906669438749551,0.0315768953941762,-0.0120079347861756,-0.0428905524313449,0.007120338268578,0.000423620454967,still,queen
1772702275022021400,1.335021484375,0.0791471864730119,0.0254541427641408,-0.0212373424864374,-0.0436520725488662,0.0042517753317952,0.0022208532318472,still,queen
1772702275031969300,1.34496923828125,0.0507177953243255,0.0223111548635642,-0.0096855631030804,-0.0416885241866111,0.0033723998349159,-0.0006167450919747,still,queen
1772702275041916400,1.35491650390625,0.0590969166129827,0.0042162956709158,-0.0029176021964638,-0.0367404147982597,0.0012232903391122,-0.001107805641368,still,queen
1772702275051864300,1.3648642578125,0.0384457582503557,-0.0224171222889563,-0.0009949156217509,-0.029136024415493,-0.0048103677108883,0.0022022374905645,still,queen
1772702275061812500,1.3748125,0.0444300933569669,-0.0357677803459111,0.002354311466118,-0.0198337640613317,-0.002826870419085,-0.0010443811770528,still,queen
1772702275071760100,1.384760009765625,0.0457756627470254,-0.0527733944135718,0.0002821425512724,-0.0091531556099653,-0.000285948626697,-0.0003618132323026,still,queen
1772702275081708300,1.394708251953125,0.0314104527860879,-0.0380355426148045,-0.0095903054430149,-0.0013554375618696,-0.0012527308426797,0.0020456109195947,still,queen
1772702275091656200,1.40465625,0.0495166028410196,-0.0191349291303777,-0.0197572782628238,0.0065605421550571,-0.0008942694403231,0.0005446532741189,still,queen
1772702275101603300,1.414603271484375,0.0456271941870451,0.0004103149586066,-0.0212069062489783,0.0141785014420747,0.0017988886684179,0.0002044741995632,still,queen
1772702275111551200,1.42455126953125,0.0481722024947404,0.022477631720982,-0.0104485057330166,0.0170400664210319,-0.0002341684885323,0.0021017100661993,still,queen
1772702275121499400,1.43449951171875,0.0553553919970989,0.0332635652729077,-0.0080767316754441,0.021191569045186,0.0021097320131957,-0.0024764018598943,still,queen
1772702275131447300,1.444447265625,0.0406920758724212,0.0420642090424196,-0.0064030308761401,0.0211702622473239,-0.0001512919552624,-7.9823192209e-05,still,queen
1772702275141395500,1.4543955078125,0.0613420651912689,0.0221134586006868,-0.0119571179143909,0.0210304409265518,-0.0038065062835812,-0.000539653468877,still,queen
1772702275151343400,1.46434326171875,0.0463783048152923,0.0111526376976689,-0.0121853497377829,0.0203987397253513,-0.002143895253539,0.0019003343768417,still,queen
1772702275161291300,1.474291259765625,0.0513163457393646,-0.0152606187224795,-0.0075477450734993,0.0181646384298801,-0.0015006600879132,0.0002329060807824,still,queen
1772702275171238100,1.484238037109375,0.064184010618925,-0.0406887696704827,-0.0102348823902895,0.020113006234169,0.0021129832603037,0.0015314635820686,still,queen
1772702275181186300,1.494186279296875,0.0598433510661125,-0.0379082447070162,-0.0096338306325546,0.0146525427699089,0.0018244551029056,0.0013887817040085,still,queen
1772702275191134200,1.50413427734375,0.0674736998140811,-0.0383374299045186,-0.0051002948391658,0.0097187710925936,-0.0009550862014293,-0.0008509366307407,still,queen
1772702275201082000,1.51408203125,0.0743570295870304,-0.0208928581640124,-0.0069190689482551,0.002673675538972,0.0024909293279051,-0.00130270794034,still,queen
1772702275211030300,1.5240302734375,0.0694184041410684,-0.0015736522288672,-0.0003660408503958,-0.0042111282236874,0.0001987465657293,0.0001441873610019,still,queen
1772702275220978200,1.533978271484375,0.0700175390779972,0.0152642845423775,-0.0020056532920745,-0.0108929863199591,-0.0020925411954522,0.0003493442200124,still,queen
1772702275230925300,1.54392529296875,0.0694201577067375,0.0242449313711607,-0.0146556979321583,-0.0167255736887455,0.0005594347603619,-0.0005284333601593,still,queen
1772702275240873200,1.553873291015625,0.0763046565234661,0.0216406877064961,-0.0053421213630703,-0.0193801149725914,0.0023191990330815,0.0007960936054587,still,queen
1772702275250821400,1.5638212890625,0.0695715488761663,0.0076187827494053,-0.0150913619611528,-0.02128960005939,-2.67792493104e-05,-0.0007344251498579,still,queen
1772702275260769300,1.573769287109375,0.0658311933040618,0.0009446227647073,-0.0155998514810518,-0.0192156247794628,-3.38908284902e-05,0.0012355474755167,still,queen
1772702275270717400,1.583717529296875,0.0632873540401458,-0.0232449354322045,-0.0134122668924566,-0.0149087598547339,-0.0005295053124427,-0.0008491750340908,still,queen
1772702275280665300,1.593665283203125,0.0505681577205657,-0.0367884605965809,-0.0020714531038596,-0.0082723665982484,0.0013904031366109,-0.0001614796929061,still,queen
1772702275290613200,1.60361328125,0.05445815089643,-0.0291124940250418,-0.010770331840706,-0.0038746884092688,0.0031358387786895,-0.001564166508615,still,queen
1772702275300560100,1.61356005859375,0.0546072039783,-0.0299074369451496,-0.003887335427897,0.0011112815700471,0.0008417917415499,-0.0027141193859279,still,queen
1772702275310508300,1.62350830078125,0.0498193851798772,-0.0073256878333893,-0.0053813242872303,0.0053070914000272,0.0023528693709522,-0.0006672136951237,still,queen
1772702275320456200,1.633456298828125,0.0553559765189886,0.0140682648494665,-0.0080018569329928,0.0054629174992442,-0.0034710457548499,-0.0016420304309576,still,queen
1772702275330404400,1.643404296875,0.0507177953243255,0.020331080112385,-0.0086432635340024,0.0102520799264311,-0.0036097960546612,0.0002072686329483,still,queen
1772702275340352300,1.653352294921875,0.0628390257507562,0.0233357966200099,-0.0160984863272169,0.009646201506257,-0.0020896918140351,-0.0002102185972034,still,queen
1772702275350300400,1.663300537109375,0.0537105473995208,0.0205083477918757,-0.0185041341132833,0.0070110037922859,0.002551665296778,0.0015123141929507,still,queen
1772702275360247300,1.673247314453125,0.0653822804927826,0.0075832884568051,-0.0207028748501325,0.0103089110925793,0.003443336347118,5.18015585839e-05,still,queen
1772702275370195500,1.683195556640625,0.074210314592719,-0.002734607458263,-0.0076129078477562,0.0086183361709117,0.0046436227858066,-0.0004265019670128,still,queen
1772702275380143400,1.693143310546875,0.0580488688647747,-0.016705760046473,-0.0046222358485043,0.007781742606312,-8.44979658722e-05,-0.0005371593870222,still,queen
1772702275390091300,1.70309130859375,0.0638841508895158,-0.0313205300299101,0.0044007774008379,0.0060794502496719,-0.0004525468684732,-0.002117745578289,still,queen
1772702275400039200,1.7130390625,0.0581979219466447,-0.0387157205984229,-0.004479161557916,0.0053768581710755,-0.0023199399001896,0.0003486122004687,still,queen
1772702275409987600,1.722987548828125,0.0619394465625286,-0.0278047838437836,-0.0060897705257521,-0.0003659822978079,-0.0016544158570468,0.0002564671449363,still,queen
1772702275419934700,1.732934814453125,0.066129299467802,-0.011808379926352,-0.0042093499068985,-0.0038500134833157,0.0033513689413666,0.0003621303476393,still,queen
1772702275429883000,1.7428828125,0.0716658908069133,0.0041583286807814,-0.0141692615555075,-0.0045959646813571,0.0014373550657182,-0.0005886182188987,still,queen
1772702275439830800,1.752830810546875,0.075706106108427,0.0197448297732044,-0.0125356096388015,-0.0081785712391138,0.0014498007949441,0.0003159223124384,still,queen
1772702275449778400,1.7627783203125,0.0484720622241497,0.0180584201893769,-0.0084977130168932,-0.0110068470239639,0.0009967968799173,0.0011811833828687,still,queen
1772702275459726600,1.7727265625,0.0616407558768987,0.0120434319328865,-0.011943206978403,-0.0136822517961263,-0.0001531285233795,-0.0013152498286217,still,queen
1772702275469674500,1.782674560546875,0.0772030666679143,-0.0013037663709692,-0.0165869799469248,-0.0067306016571819,-0.0004261028952896,-0.000684613129124,still,queen
1772702275479622700,1.79262255859375,0.0329103359550237,-0.0048714876270387,-0.0058508974356926,-0.0084222722798585,-0.0002757851034402,0.0018122671172022,still,queen
1772702275489569800,1.80256982421875,0.0608925678580999,-0.0191814328699372,-0.0060791646500583,-0.0025137830525636,0.0019559438806027,0.0011097253300249,still,queen
1772702275499517700,1.812517578125,0.0635860447257757,-0.0315365291344583,-0.0067782528301235,0.001962564419955,0.0001974757760763,6.90543092787e-05,still,queen
1772702275509465600,1.822465576171875,0.0299175838798284,-0.021548132318526,-0.0016747739449609,0.0034078620374202,-0.000988429877907,-0.0001930007711052,still,queen
1772702275519413800,1.832413818359375,0.0415893169730901,-0.0069657051185553,-0.0056120700114057,0.007108986377716,-0.000515354797244,-0.0027112704701721,still,queen
1772702275529361700,1.842361572265625,0.0637362668514251,-0.0021709827969549,-0.0165416886336286,0.0049379775300621,-0.0005094958469271,0.0004789303056895,still,queen
1772702275539309800,1.852309814453125,0.0724146633476018,0.0027027995351585,-0.0067554690345132,0.0075801606290042,0.000449544750154,-0.0006432572845369,still,queen
1772702275549256400,1.86225634765625,0.0441331562370061,0.0093022349036327,-0.0137480975509679,0.0062086326070129,0.0001097251661121,0.000207089819014,still,queen
1772702275559204600,1.87220458984375,0.0505675731986761,0.0118690800129785,-0.0161651926045888,0.0048714512959122,0.001610921928659,-0.0011227526701986,still,queen
1772702275569152500,1.882152587890625,0.0754074154227972,0.0101001238368975,-0.0121940650504897,0.0017904399428516,-0.0018392032943665,-0.0014820131473243,still,queen
1772702275579100700,1.8921005859375,0.047425183519721,0.0050477175518462,-0.0097408963197784,0.0019338326528668,0.0006247973069548,0.001139800529927,still,queen
1772702275589048600,1.902048583984375,0.0644838703483343,-0.0117799655409762,-0.011133759467263,0.0012643137015402,0.0019486548844724,0.0009051761589944,still,queen
1772702275598996700,1.911996826171875,0.0390448931872844,-0.0231387031453312,-0.0031377854274294,-0.0008884100243449,0.0035223972517997,0.0004514758475124,still,queen
1772702275608944600,1.921944580078125,0.0831879862964153,-0.020175104099384,-0.0117696838922682,0.0017635659314692,-0.0004667518660426,-0.0009983491618186,still,queen
1772702275618891800,1.931891845703125,0.0453296725451946,-0.0230394097726093,0.0021912264339625,-0.0026566330343484,-0.0025021606124937,0.0023133619688451,still,queen
1772702275628839700,1.941839599609375,0.0396440281242132,-0.0230156841204385,0.0025884501571999,0.0010478235781192,-0.0018840408883988,-0.0018872418440878,still,queen
1772702275638787800,1.951787841796875,0.0879769741386175,-0.0116354858862352,-0.0102329906856582,-0.0019340738654136,-0.0011418811045587,0.0014632320962846,still,queen
1772702275648735700,1.96173583984375,0.0534112721920013,0.0012684327648064,-0.0100493503475969,-0.0027846880257129,-0.0025498941540718,-0.0010790217202156,still,queen
1772702275658684000,1.971683837890625,0.0565536618709564,0.0141940500785363,-0.0122401383901422,-0.0048593888059258,0.0021375883370637,-0.0001994725316762,still,queen
1772702275668631600,1.981631591796875,0.0706195966243743,0.0101755351521773,-0.0187384805836307,-0.0063587483018636,0.0001548649743199,0.0011307764798402,still,queen
1772702275678578700,1.99157861328125,0.0510164860099554,0.010269152269361,-0.0082267699963587,-0.0022611413151025,0.0039352844469249,0.0012035849504172,still,queen
1772702275688526600,2.001526611328125,0.0608925678580999,-0.0016883589414966,-0.0050076104453881,-0.0019322405569255,-0.0010080751962959,0.0006496477872133,still,queen
1772702275698474800,2.011474853515625,0.0517646740287542,-0.0100471218578924,-0.0024947337169607,0.0018108855001628,0.0011226627975702,-0.0018741302192211,still,queen
1772702275708422700,2.021422607421875,0.0445820690482854,-0.0176226431375951,-0.0010669031457277,0.0028777478728443,-0.0018134722486138,-0.000286353752017,still,queen
1772702275718370600,2.03137060546875,0.0587976414054632,-0.026215541890962,-0.0073713256357354,0.0061131007969379,-0.00125128403306,-0.0003689536824822,still,queen
1772702275728318700,2.041318603515625,0.057001990160346,-0.0217574231210746,-0.0039386432067374,0.0041902987286448,-0.0028973841108381,0.003611140884459,still,queen
1772702275738266600,2.0512666015625,0.0514653988212347,-0.0078545785372116,-0.0135160766100918,0.0075969384051859,0.0005914908833801,-0.0029068221338093,still,queen
1772702275748213800,2.0612138671875,0.0764542941272258,-0.004756671316555,-0.0153287760297767,0.004616861231625,0.0061183492653071,0.0008186739869415,still,queen
1772702275758161700,2.07116162109375,0.0306646028548479,0.0065129461075761,-0.0082709345067152,0.0019965281244367,0.0015883496962487,-0.0016618212684988,still,queen
1772702275768109600,2.081109619140625,0.0336573549300432,0.0133302751393406,-0.0053841875311743,0.0005315230228006,0.0016733047086745,0.0020335810258984,still,queen
1772702275778057500,2.091057373046875,0.0803442873030901,0.0104672207082854,-0.0037847895105194,-0.0014801039360463,0.0013170684687793,-0.000495602376759,still,queen
1772702275788005600,2.101005615234375,0.0779500856429338,0.0030821296962123,-0.0089238717153144,-0.0034644249826669,-0.0017527574673295,-0.0019656673539429,still,queen
1772702275797953500,2.11095361328125,0.0221352594405412,-0.0102765398497285,-0.0067782242890156,-0.004030976910144,-0.0002957102842628,0.0004498232156038,still,queen
1772702275807900700,2.120900634765625,0.04203706074059,-0.0118454593920847,-0.0024923910628247,-0.001267148181796,0.0048905294388532,0.0008652764372527,still,queen
1772702275817848600,2.1308486328125,0.0782493608504533,-0.0211563222726341,-0.0152106854833953,-0.0028168046846985,0.0008206204511225,-0.000200118869543,still,queen
1772702275827796700,2.140796630859375,0.0508656793624162,-0.0211214929878478,-0.0038865008859022,-0.0032985704019665,-0.0014481265097856,-0.0021479548886418,still,queen
1772702275837744600,2.15074462890625,0.0317120660811662,-0.0139572616309975,-0.0005382613203662,0.0005953582003712,-0.0004467074759304,-0.0011091837659478,still,queen
1772702275847692800,2.16069287109375,0.0589461099654436,-0.0042841695650116,-0.0052865484010661,0.0007926984690129,0.0001410520635545,-0.0010964006651192,still,queen
1772702275857640700,2.170640625,0.0737608172595501,0.0017028752343831,-0.0124077055178815,-0.0003570485860109,-0.001421726308763,0.0002323435619473,still,queen
1772702275867588900,2.1805888671875,0.0281213481128215,0.0089770466534333,-0.0141125629322079,0.0019124969840049,-0.0010092025622725,0.0010185088030993,still,queen
1772702275877535500,2.190535400390625,0.0471253237903118,0.0075027323214162,-0.0087446289911575,0.001396270468831,0.0022691315971314,0.0009072427637875,still,queen
1772702275887483600,2.200483642578125,0.0745084207564592,-0.0054792471159511,-0.0046473657231836,-0.0010565011762082,0.0023674024268984,-3.2922253012e-06,still,queen
1772702275897431600,2.210431640625,0.0475736520797014,7.11115973754e-05,-0.0018692599040223,0.0002129357308149,0.0024087603669613,-0.0004762015305459,still,queen
1772702275907379700,2.220379638671875,0.0430839394450187,-0.0030159742622228,-0.0065394836296967,0.0028715694788843,0.0001360187307,0.0013336827978491,still,queen
1772702275917327600,2.23032763671875,0.065679802134633,-0.0072531266331439,-0.0103513438102323,0.0022548837587237,-0.0007617841474711,-0.0037321671843528,still,queen
1772702275927275800,2.24027587890625,0.04203706074059,-0.0187245662227098,-0.0064952414875268,0.0022660689428448,-0.0008611199446022,-0.0017462479881942,still,queen
1772702275937222700,2.25022265625,0.0619382775187492,-0.0086646179909294,-0.0043827428455813,0.0026893061585724,0.0008686785586178,0.000310689676553,still,queen
1772702275947170800,2.2601708984375,0.0400911873698234,-0.0037168551092749,-0.0150267700090538,0.0027468304615467,-0.0019422881305217,-0.0013958639465272,still,queen
1772702275957118700,2.27011865234375,0.0577484246134758,-0.0072892984916456,-0.0204504618584876,0.0025937336031347,-0.0004589976742863,0.0020762374624609,still,queen
1772702275967067000,2.28006689453125,0.0948585503458976,-0.0034971579333767,-0.0269702281492063,-0.0007472019642591,0.0025445155333727,-9.53041017055e-05,still,queen
1772702275977014800,2.290014892578125,0.0359007499426603,0.0091160760982107,-0.0138327207942318,-0.0027820020914077,0.0014518913812935,-0.0007672756910324,still,queen
1772702275986962400,2.29996240234375,0.0558025512427091,0.0019880793902993,-0.0027838425818481,-0.0011513484641909,0.0013011565897613,0.000160037074238,still,queen
1772702275996910600,2.30991064453125,0.0532592965006828,0.0016418069674647,0.0021698651271697,-0.006317226216197,-0.0030727973207831,0.0010167951695621,still,queen
1772702276006857700,2.319857666015625,0.0547562570601701,0.0031699287085517,0.0025364745164348,-0.0051510287448763,-0.0018900875002145,0.001660481095314,still,queen
1772702276016805600,2.3298056640625,0.0556540826827287,-0.0029097936347548,-0.0110014428910624,-0.0014639850705862,0.0001846733503043,-0.0007781444583088,still,queen
1772702276026753800,2.33975390625,0.0260258371382951,-0.0076940787586092,-0.0184696244889055,-0.0011113826185464,0.0010355534031987,-2.8982758522e-06,still,queen
1772702276036701700,2.34970166015625,0.0766033472090959,-0.0123484827189997,-0.02227211747783,0.0007448829710483,-0.0001852065324783,0.0006196359172463,still,queen
1772702276046649600,2.359649658203125,0.056102995494008,-0.0082826420691737,-0.0170401179838168,0.0011472865007817,0.0020995191298425,-0.0011393819004297,still,queen
1772702276056597800,2.36959765625,0.0418868386149406,-0.0061758779066265,-0.0080932124527869,0.0018226117826998,0.0028555814642459,-0.0005230733659118,still,queen
1772702276066545000,2.379544921875,0.0538578469157218,0.0016905994184664,-0.0078177964698232,0.0028415371198207,-0.0008848281577229,0.0013392749242484,still,queen
1772702276076492800,2.389492919921875,0.045927638438344,7.1141565538e-06,-0.0029202919104718,0.0024828703608363,-0.0059471949934959,0.0002565747126936,still,queen
1772702276086440400,2.3994404296875,0.0611912585437297,0.0075662225867505,-0.0012776746609539,0.0039151185192167,-0.0014147609472274,-0.0007578232325613,still,queen
1772702276096388600,2.409388671875,0.049519525450468,0.0038372914493142,-0.0036185409819649,-0.0011269464157521,0.0002957545220851,-0.0010254124645143,still,queen
1772702276106336500,2.41933642578125,0.0653805269271135,0.0009443279350627,-0.0159495588262216,-0.0011711549013853,0.000234501902014,0.0015253629535436,still,queen
1772702276116284700,2.42928466796875,0.0652308893233537,-0.0066069319758738,-0.0277424843134707,0.0014599654823541,0.003297267248854,0.0010134023614227,still,queen
1772702276126231600,2.4392314453125,0.0453285035014152,-0.0080682035924051,-0.0135785804947372,-0.0002844049595296,0.0052767950110137,0.0002376232296228,still,queen
1772702276136179700,2.4491796875,0.0414379258036613,-0.0112276551456598,-0.0081728604101226,-0.0006588082760572,0.0021051471121609,-0.0006482189055532,still,queen
1772702276146127600,2.459127685546875,0.0679237816691398,-0.004560122977037,-0.0031998954447859,0.000526298303157,-0.0032280990853905,0.0014863046817481,still,queen
1772702276156075800,2.46907568359375,0.0544569818526506,-0.0207816734240972,-0.0023445561154396,0.0023918054066598,-0.0004937425255775,-0.0014752363786101,still,queen
1772702276166023700,2.479023681640625,0.0415881479293107,-0.0158529551675077,-0.0005378046626399,-0.0002037114463746,-0.0020253262482583,0.0001554172486066,still,queen
1772702276175971800,2.488971923828125,0.0584971971541643,-0.0070448747269227,-0.0098377385821542,0.0001815631985664,-0.0018840730190277,-0.0015937471762299,still,queen
1772702276185919700,2.498919677734375,0.0769026224166154,0.0037626692956677,-0.0192500959256663,0.000384762417525,0.0004501873627305,0.0018952600657939,still,queen
1772702276195866600,2.50886669921875,0.045927638438344,0.0021835554403936,-0.0089488965587166,-0.0012623942457139,0.0051576178520917,-0.0003138440661132,still,queen
1772702276205814500,2.518814453125,0.0514636452555656,0.0039345261519236,-0.0101696762335486,-0.0044595189392566,-0.0001772264949977,0.0024433266371488,still,queen
1772702276215762700,2.5287626953125,0.0596937134623527,0.0029511862327126,-0.007200027614372,-0.0003888164646923,-0.0001910384744405,-0.0011692615225911,still,queen
1772702276225710600,2.538710693359375,0.0786982736617326,-0.0037085485052331,-0.0082339646388369,-0.0030293404124677,-0.0011154217645525,-0.0013823143672198,still,queen
1772702276235658800,2.54865869140625,0.0474240144759416,0.0024476814173074,-0.0039428124917787,0.0007101884111762,0.0011691455729305,-0.0008714061696082,still,queen
1772702276245606700,2.558606689453125,0.0487707529097795,-0.0039956026957632,-0.0085026472036261,0.0003101816400885,-0.0008987989276647,-0.0018530474044382,still,queen
1772702276255553800,2.5685537109375,0.0619388620406389,-0.0143949577868741,-0.0202639674096368,0.0011444268748164,-0.0028477716259658,0.0021389774046838,still,queen
1772702276265501700,2.578501708984375,0.0219856218367815,-0.0117724352550692,-0.0155535874867986,0.003972437698394,0.0001203208230435,-0.0005473534110933,still,queen
1772702276275449900,2.588449951171875,0.1005447792887687,-0.0115479902658727,-0.017985228230647,0.0015908861532807,0.002748105674982,0.0028116540051996,still,queen
1772702276285397800,2.598397705078125,0.0128565589636564,-0.0035890294764016,0.0019289770348928,0.002538971370086,0.0025579559151083,0.0002454319037497,still,queen
1772702276295345700,2.608345703125,0.0640326194494962,-0.0055043587243213,0.0010405460034089,0.0014553470537066,-0.0037983781658113,-0.0007003273349255,still,queen
1772702276305293600,2.61829345703125,0.0686719696879386,0.002619077905493,0.0038640710000297,-0.0005300394259393,-0.0079577043652534,0.0005883760750293,still,queen
1772702276315240700,2.62824072265625,0.0077706340014934,0.0002790849423836,-0.0009745053046732,-0.0010705241002142,-0.0035202200524508,0.0024834210053086,still,queen
1772702276325188600,2.638188720703125,0.0978524714648723,-0.0011883501263975,-0.0249837579065701,-0.0008412259630858,0.000280110631138,0.0012639593333005,still,queen
1772702276335136800,2.64813671875,0.0326104762256145,0.0001529966067479,-0.0233101256059249,-0.0030577601864933,0.0038411198183894,0.0013233833014965,still,queen
1772702276345084700,2.658084716796875,0.0740595079451799,-0.0098652179608354,-0.0241003740846063,-0.0033981120213866,0.0052344854921102,0.0017380374483764,still,queen
1772702276355032600,2.668032470703125,0.0589455254435539,-0.017594592936756,-0.0254102442569099,-0.0032210359349846,0.0044508595019578,0.0018613268621265,still,queen
1772702276364980700,2.677980712890625,0.0124076461523771,-0.0138718963189283,-0.0082249764731386,0.0006605219095945,0.0036436552181839,0.0015169801190495,still,queen
1772702276374928600,2.6879287109375,0.0758539901465177,-0.0088360347433015,0.0014687916276394,-0.0015063295140862,-0.007460942491889,-0.0003585657104849,still,queen
1772702276384875800,2.697875732421875,0.0252776491194963,-0.0093820398370618,0.0045923578751157,0.0007464387454092,-0.0041482364758849,-1.0757241398e-05,still,queen
1772702276394823400,2.707823486328125,0.0689724139392375,-0.0124820448291487,-0.0127786668552784,-0.0006763241253793,-0.0008993949741125,-0.0006802969146519,still,queen
1772702276404771600,2.717771484375,0.0462274981677532,-0.0039673418615479,-0.017938126269466,0.0009681778028607,0.0028063934296369,0.0006643333472311,still,queen
1772702276414719200,2.72771923828125,0.0472737923502922,-0.000164269202722,-0.0196260941977845,0.0008716275915503,0.004713820759207,0.0008739316835999,still,queen
1772702276424667400,2.73766748046875,0.0803437027812004,0.0031558510924936,-0.0168234886916063,0.0014668442308902,-0.0009975945577025,0.0013889870606362,still,queen
1772702276434615300,2.747615234375,0.0393429993510246,-0.0004264629466313,-0.004557704403554,-0.0041979206725955,-0.0006506028585135,0.0022004507482051,still,queen
1772702276444562400,2.7575625,0.0525116930037736,0.0005110068456153,-0.0070511035383096,-0.0011043925769627,-0.0036977920681238,0.0003455588594079,still,queen
1772702276454510300,2.76751025390625,0.0525122775256633,-0.0148719207989925,-0.0128932639700535,-0.0005534505471587,-0.0037085488438606,0.0012952606193721,still,queen
1772702276464458500,2.77745849609375,0.0629874943107366,-0.007616742631013,-0.0168920421494811,0.0017041112296283,0.0012025863397866,-0.0003918521106243,still,queen
1772702276474406400,2.787406494140625,0.0561035800158977,-0.0179340939817426,-0.016392084137554,-0.0001428010873496,0.0035373507998883,0.0010610343888401,still,queen
1772702276484354600,2.7973544921875,0.051015316966176,-0.0150785572785069,-0.0193327509741298,0.0019328666385263,0.0007650000043213,-0.0026426236145198,still,queen
1772702276494302500,2.807302490234375,0.0607417612105607,-0.0174537185947643,-0.0038454838889243,0.0009193811565637,-0.0013255369849503,0.0020652716048061,still,queen
1772702276504249300,2.817249267578125,0.0552051698714494,-0.0115289727548602,-0.0038670700996473,0.0016078082844614,-0.0025647059082984,-0.0009110772516578,still,queen
1772702276514197200,2.827197265625,0.0445814845263957,-0.0115548115906596,0.0052341389354609,-0.0013729976490139,-0.0029079234227538,0.0012730578891932,still,queen
1772702276524145400,2.8371455078125,0.0962070423454046,-0.0040474096585807,-0.0060207227358885,-0.0012859124690294,-0.0021068449132144,-0.0008135291282087,still,queen
1772702276534093300,2.84709326171875,-0.025298691907525,0.0110422030180692,-0.0118005859206081,-0.0025947634130716,0.0032843793742358,0.0013206307776272,still,queen
1772702276544041500,2.85704150390625,0.1324187579333782,0.0157377164486271,-0.0291145946505828,-0.0043511176481842,0.0051664351485669,0.0009997198358178,still,queen
1772702276553989400,2.8669892578125,-0.007044073292613,0.0149629532334452,-0.0100159309935406,-0.0021025077439844,0.0032180822454392,-0.0009164658840745,still,queen
1772702276563937500,2.8769375,0.0370984352946281,-0.0001367547184781,-0.0106694938232249,-0.0013669426552951,0.0027453710790723,0.0025003696791827,still,queen
1772702276573884400,2.886884521484375,0.1068295586466789,-0.0214346574401133,-0.0055901687068515,-0.0015342417173087,-0.0001761247403919,-0.0017442845273762,still,queen
1772702276583832600,2.89683251953125,-0.0083913962483406,-0.0246947620644699,-0.0036492911716108,-6.9769565016e-05,-0.0018850751221179,-0.0001623667776584,still,queen
1772702276593780500,2.906780517578125,0.0780997232466936,-0.024276810647035,-0.0174130532242357,0.0032925752457231,-0.0066433949396014,-0.0007015406154096,still,queen
1772702276603728600,2.916728759765625,0.0396434436023235,-0.0187898728441505,-0.0209966450487612,0.0015173121355473,0.0002062553539872,0.0018630838021636,still,queen
1772702276613676300,2.92667626953125,0.0623883593738079,-0.0068898417121265,-0.0167740452179336,0.0025971813593059,0.0027565842028707,-0.0009213518351316,still,queen
1772702276623624400,2.93662451171875,0.0646323389083147,0.0054248631765018,-0.008749865713634,0.0038861513603478,0.0019411242101341,0.0012885392643511,still,queen
1772702276633571300,2.9465712890625,0.0293172798991203,0.0183895095990446,0.0082389045337913,0.0006910343654453,0.0024220189079642,-0.0025634351186454,still,queen
1772702276643519500,2.95651953125,0.0782487763285636,0.0203588357689906,-0.0025235351197596,-0.0029428489506244,0.0017857896164059,0.0012017418630421,still,queen
1772702276653467400,2.96646728515625,0.0356026437789201,0.0106195914085372,-0.0016035718722734,-0.0026010004803538,-0.0072892112657427,0.0011531319469213,still,queen
1772702276663415600,2.97641552734375,0.0347054026782512,0.0043256192451852,-0.0099752884558984,-0.0015216208994388,0.000267241615802,-0.0008029595483094,still,queen
1772702276673363500,2.986363525390625,0.0809428377181291,-0.0211349506910424,-0.022149552827375,0.0002775373868644,0.0064800647087395,0.0003248495049774,still,queen
1772702276683311400,2.996311279296875,0.0378460387915372,-0.0320459331114543,-0.0287581002299557,-0.0009536421857774,0.007538138423115,-0.0018227237742394,still,queen
1772702276693258500,3.006258544921875,0.0685205785185098,-0.0266239879778237,-0.0241733845218899,0.0011729230172932,0.0106629766523838,0.0017519174143671,still,queen
1772702276703206400,3.016206298828125,0.042632104024291,-0.0215563658573315,-0.0134483850936754,0.001315401867032,0.0012606864329427,-0.0009400057606399,still,queen
1772702276713154300,3.026154296875,0.0568482609033584,-0.0203231913501629,0.0065066830468596,0.0008320189081132,-0.0095004709437489,0.0012174467556178,still,queen
1772702276723102200,3.036102294921875,-0.0257499428063631,0.0061625263763533,-0.0012762624469352,-0.0038266484625637,-0.0107918372377753,-0.001764761051163,still,queen
1772702276733050400,3.04605029296875,0.2298328379809856,0.0062024576695868,-0.0124491198070812,-0.0021009012125432,-0.0130095966160297,4.0064100176e-05,still,queen
1772702276742998300,3.055998291015625,-0.2047135942935943,0.0176322112586058,0.0179230154653021,-0.0057563562877476,-0.0024419063702225,-0.0006765923462808,still,queen
1772702276752945400,3.0659453125,0.3456535123348236,0.0027358895248296,-0.0410885917761828,-0.0015663621015846,0.0018195980228483,0.0006090211682021,still,queen
1772702276762893300,3.075893310546875,-0.1673041933536529,-0.0100929371859296,0.0019097517446149,-0.0010262732394039,0.0003364835865795,0.0002851807512342,still,queen
1772702276772841500,3.085841552734375,0.1268827511161565,-0.0099404020888963,-0.0236546259113703,-0.0003484888002276,0.0046461052261292,-0.0014282900374382,still,queen
1772702276782789400,3.095789306640625,0.1458867267936468,-0.026978491370764,-0.0200807654629927,-0.00088990945369,-7.43479467928e-05,-0.0020280338358134,still,queen
1772702276792737500,3.105737548828125,-0.1077490115791559,-0.0166244532799464,0.0058151183028356,0.0011070203036069,-0.0012805741280317,-0.0014354137238115,still,queen
1772702276802685400,3.115685546875,0.1385550687313079,-0.0230491776813752,-0.0125469324671255,0.002253244863823,-0.0017471597529947,0.0025755730457603,still,queen
1772702276812632300,3.12563232421875,0.0532616345882415,-0.0111940325789153,0.00237238712057,0.0029928963631391,-0.0004846341907978,-0.0012066385243088,still,queen
1772702276822580200,3.135580322265625,0.0053770168632268,0.0018332945404363,-0.0050225100453535,-0.0001184744760394,0.0034310114569962,0.001845876686275,still,queen
1772702276832528400,3.1455283203125,0.1283791271537542,-0.001638333800045,-0.0174662743989494,0.0019135479815304,-0.0007747672498226,-0.0007591340690851,still,queen
1772702276842476300,3.155476318359375,0.0152530987113714,0.0067309733432513,-0.0082301481218892,-0.0006635929457843,0.0001749158836901,-0.0007269098423421,still,queen
1772702276852424400,3.165424560546875,0.0689729984611272,0.0098342702667228,-0.017211646617332,-0.0011095847003161,0.0002610310912132,-0.0004670731723308,still,queen
1772702276862372400,3.175372314453125,0.0727145230770111,-0.0028089598984399,-0.0164577914761495,-0.0023404979147017,-0.0013102334924042,-0.0013435194268822,still,queen
1772702276872320500,3.185320556640625,0.0037310032218694,-0.005095769361098,-0.0016041392694984,-0.0021429881453514,0.0031573621090501,0.0007171253673732,still,queen
1772702276882267400,3.195267333984375,0.1146124676078557,-0.0130944913387997,-0.0112131197302311,0.0017585433088243,0.0033592297695577,-0.0014991573989391,still,queen
1772702276892215600,3.205215576171875,0.0267746096789836,-0.0143926585152221,-0.003898705063638,0.0006789490580558,0.00266994535923,0.0013344064354896,still,queen
1772702276902163500,3.21516357421875,0.0559545269340276,-0.0097040189250896,-0.0086845134264207,0.0008885394781827,-0.0065397983416914,-0.0003433851525187,still,queen
1772702276912111600,3.225111572265625,0.038896424627304,-0.0086196377757092,-0.0190940468474291,0.0009092609398066,-0.0060390653088688,0.0009161434136331,still,queen
1772702276922059500,3.2350595703125,0.0544593199402093,-0.0078712305612018,-0.0339186202317127,0.0013854340650141,-0.0006938348524272,-0.0020362366922199,still,queen
1772702276932007400,3.24500732421875,0.0677764821529388,-0.0059124115147162,-0.0193424640839686,0.0040954248979687,0.0060644885525107,0.0014694561250507,still,queen
1772702276941954300,3.254954345703125,0.0465267733752727,-0.0117622734790144,-0.0050206445985415,0.0016346643678843,0.0084075378254055,-0.0011979662813246,still,queen
1772702276951902500,3.26490234375,0.0596942979842424,-0.0029289655531611,0.0066448973575956,0.0014273589476943,0.0002156123518943,0.0036337184719741,still,queen
1772702276961850400,3.274850341796875,0.0546066194564104,-0.0077190065622446,0.0159353111051605,0.0027056764811277,-0.0070377732627093,-0.0003202762454748,still,queen
1772702276971798500,3.284798583984375,0.038896424627304,0.0092920748400443,0.0026382772233628,-0.001605337485671,-0.0124162510037422,0.0023144278675317,still,queen
1772702276981746400,3.294746337890625,0.0576022941410541,0.002457288925047,-0.0176875045177526,-0.0016466164961457,-0.0084079271182417,0.0023080362007021,still,queen
1772702276991694300,3.3046943359375,0.0676285981148481,0.0030225167403856,-0.040215192775405,0.0013810200616717,0.0029807721730321,0.0003927047364413,still,queen
1772702277001641500,3.314641357421875,0.082142276635766,-0.00741113819796,-0.0464112709365552,-0.0002432418987154,0.0126669555902481,0.0008600894361734,still,queen
1772702277011589600,3.324589599609375,0.0508662638843059,-0.0121636550708499,-0.0220356532572768,-0.0010599219240248,0.0126097397878766,9.59099270403e-05,still,queen
1772702277021537300,3.334537353515625,0.0532592965006828,-0.008189314358824,0.0104564801185624,2.3984350264e-05,0.0054618152789771,0.0010543819516897,still,queen
1772702277031485400,3.3444853515625,0.058048284342885,-0.0088829043798643,0.0269859737076098,0.0018726396374404,-0.0087136998772621,-0.0004024100489914,still,queen
1772702277041433300,3.354433349609375,0.0174976627677679,-0.0125446811445348,0.0211880622679018,-0.0030307727865874,-0.0144988857209682,0.0023297267034649,still,queen
1772702277051381200,3.36438134765625,0.0556570052921771,0.0015771104122053,-0.0018449052058334,-0.0008280100300908,-0.0097903795540332,0.0017103226855397,still,queen
1772702277061328400,3.374328369140625,0.0646358460396528,0.0037629204574172,-0.0289653703220654,-0.0023614577949047,0.0029089031741023,4.05209138989e-05,still,queen
1772702277071276500,3.384276611328125,0.0641863487064838,0.0055205820608709,-0.052114377948991,-0.0026759281754493,0.0126408990472555,0.000330823007971,still,queen
1772702277081224400,3.394224365234375,0.0682248104423284,-0.0039762426914559,-0.0325211813738103,-0.0016119955107569,0.0126688620075583,-0.0006047452334314,still,queen
1772702277091172400,3.40417236328125,0.041438510325551,-0.0057982168295624,-0.0086005078127316,0.0005515767261385,0.0059985648840665,-0.0002706632949411,still,queen
1772702277101120500,3.41412060546875,0.0448795906901359,-0.0215418327251914,0.019707769715425,-0.0011701569892466,-0.0021206140518188,0.0004718257114291,still,queen
1772702277111068400,3.424068359375,0.0342564898669719,-0.0103262870007893,0.0158664174372795,0.003310746513307,-0.0094356834888458,8.90949741e-06,still,queen
1772702277121015300,3.434015380859375,0.0490717816829681,-0.0175117700665781,0.0046466202294453,0.0021972788963466,-0.0091728288680315,0.0007175765931606,still,queen
1772702277130963200,3.443963134765625,0.0605950462162494,-0.0090622207400796,-0.0154816011044662,0.0023738348390907,-7.47018493711e-05,0.000772001221776,still,queen
1772702277140911400,3.453911376953125,0.074659811925888,0.0004597264662384,-0.0337713275653775,0.0008989763446152,0.0099883191287517,0.0009999680332839,still,queen
1772702277150859300,3.463859375,0.0655307490527629,0.0018473147888675,-0.0274039411080651,-0.001743771135807,0.0078573366627097,0.0008788262493908,still,queen
1772702277160807400,3.473807373046875,0.058048284342885,-0.0068472035802202,-0.0053363823170948,-0.0022633536718785,0.0055065643973648,-0.0015185514930635,still,queen
1772702277170755300,3.48375537109375,0.0507166262805461,-0.0005181004525715,-0.0010818769525736,0.0007814383134245,-0.0057271816767752,0.0005488605238497,still,queen
1772702277180702500,3.493702392578125,0.0417389545768499,-0.0021355233245063,0.0069865572519833,-0.0046831020154058,-0.0040621734224259,0.0006790892221033,still,queen
1772702277190650400,3.503650390625,0.0426379492431879,-0.0053660194035328,0.00039087047262,-0.0035466747358441,-0.0046348087489604,-5.3672119975e-06,still,queen
1772702277200598500,3.5135986328125,0.0719675041019916,-0.0169927477362216,-0.0161270491263538,-0.0003250488080084,-0.0008161021396517,0.0010393909178674,still,queen
1772702277210546400,3.52354638671875,0.0396451971679925,-0.0163286395379924,-0.0142741866596392,-0.0025720652192831,0.0040101259946823,-0.0004443959333002,still,queen
1772702277220494600,3.53349462890625,0.089175244012475,-0.0152675462201877,-0.0145323763715219,0.0001014824956655,0.0023088990710675,0.0015330011956393,still,queen
1772702277230442500,3.5434423828125,0.0502688825130462,-0.0112005867589323,-0.020472045785922,-0.0012716017663478,-2.7778558433e-05,-8.92486423254e-05,still,queen
1772702277240389400,3.553389404296875,0.0555067831665277,-0.0001970765640722,-0.0032829706183576,-0.0019578980281949,-0.0031822929158806,-0.0009260138031095,still,queen
1772702277250337300,3.563337158203125,0.064036711102724,-0.0061275355488964,-0.0051947533482103,-0.0008560353890061,-0.0020520696416497,0.0005689319223165,still,queen
1772702277260285400,3.573285400390625,0.0510182395756244,0.0098222875679843,-0.0038115873275441,-0.0019218320958316,0.0011767470277845,-0.0005187033675611,still,queen
1772702277270233300,3.5832333984375,0.0617921470463275,0.0018708607747641,-0.0058934910434705,0.0009954879060387,0.0027181054465472,0.0004531708545982,still,queen
1772702277280181500,3.593181396484375,0.0697223555237054,-0.0113507894766284,-0.0037074111420835,-0.0009382334537804,0.0003891712985932,0.0004137558862566,still,queen
1772702277290129400,3.60312939453125,0.0457803389221429,-0.006830229612533,-0.0129415612328331,0.0029964316636323,0.0004193079657852,-0.001839599572122,still,queen
1772702277300076500,3.61307666015625,0.0631383009582757,-0.0140000573098193,-0.0207469035048154,0.0001191524788737,-0.0005892310291528,0.0009543225169181,still,queen
1772702277310024400,3.6230244140625,0.0441349098026752,-0.0102724755959643,-0.0188615863734914,0.0010913177393376,-0.00033352477476,5.85834495723e-05,still,queen
1772702277319972600,3.63297265625,0.0791495245605707,-0.0167058091371785,-0.009929074693995,-1.52252614498e-05,0.0023863615933805,-0.0007518164347857,still,queen
1772702277329920500,3.64292041015625,0.0598456891536712,-0.0091140342673519,-0.0143968004007998,0.0010640611872076,0.0064043514430522,-0.000888701993972,still,queen
1772702277339868400,3.652868408203125,0.0674766224235296,-0.0076479997107351,-0.0082442965198948,0.0029892602469772,0.0023675321135669,-0.0026261482853442,still,queen
1772702277349816300,3.66281640625,0.0495201099723577,-0.0058245665511931,-0.0027391894477244,-0.0006801048293709,3.77628020942e-05,0.0009009642526507,still,queen
1772702277359764200,3.67276416015625,0.0490717816829681,-0.000897762261299,0.00082647513611,-0.0036436705850064,-0.005248877685517,0.0022906013764441,still,queen
1772702277369711400,3.68271142578125,0.0667296034485101,-6.80347232388e-05,-0.0102851113152515,-0.0003407355397939,-0.0068002771586179,0.0005451929755508,still,queen
1772702277379659500,3.692659423828125,0.0550584548771381,-0.0063131515024462,-0.0266303195371991,-0.0017349002882838,0.0004227482713758,-0.000450296793133,still,queen
1772702277389607400,3.702607421875,0.0677770666748285,-0.0024501642082832,-0.0246473198932828,-0.0028485669754445,0.0065567810088396,0.0013420996256172,still,queen
1772702277399555300,3.712555419921875,0.0700204616874456,-0.0101997026206983,-0.0153400520506838,0.0007112808525562,0.0040147937834262,0.0008155927062034,still,queen
1772702277409503500,3.72250341796875,0.0469762707084417,-0.0216714025051682,0.004710303432669,0.0005755075253546,-0.0010161790996789,0.0005154595710337,still,queen
1772702277419451400,3.732451416015625,0.0457797544002532,-0.0139914926941622,0.0106865751054778,0.0022551631554961,-0.005604273173958,0.0001838956959545,still,queen
1772702277429398500,3.7423984375,0.0471276618778705,-0.0121650638599356,0.0062361932591185,0.0002569700591266,-0.0087551167234778,0.0004847440868616,still,queen
1772702277439346400,3.752346435546875,0.0564063623547554,-0.012621366534871,-0.0135260854058084,0.0002255449071526,-0.005801404826343,0.0016293707303702,still,queen
1772702277449294600,3.762294677734375,0.0692751962780952,-0.0106125166387122,-0.0205329890427878,0.0029303033370524,0.0027500134892761,-0.0023179363925009,still,queen
1772702277459242500,3.772242431640625,0.0577525162667036,-0.0066980506044725,-0.0231805626758141,0.0017441310919821,0.0065934876911342,0.0001646624878048,still,queen
1772702277469190700,3.782190673828125,0.0622410598576068,-0.0013742292289622,-0.013464644392021,0.0010082782246172,0.0045560463331639,0.0024274135939776,still,queen
1772702277479138600,3.792138671875,0.0520657028019428,-0.002060854648854,0.0022010696912533,0.0007984209805727,-0.0036800457164645,0.0014934432692825,still,queen
1772702277489085400,3.80208544921875,0.056854690644145,-0.009027187671783,0.0038976239264709,-0.000204341020435,-0.0023140027187764,0.002550508826971,still,queen
1772702277499033300,3.812033447265625,0.0588005640149116,-0.0020820528432152,-0.0053134215666155,-0.0018352610059082,-0.0048123146407306,0.0001840237528085,still,queen
1772702277508981500,3.8219814453125,0.0710708475232124,-0.0102452587954758,-0.0204019237087573,3.62857244908e-05,0.000378381460905,0.0003034914843738,still,queen
1772702277518929400,3.831929443359375,0.0598474427193403,-0.0153637708529888,-0.0243643519331701,0.0003135208971798,0.0071795620024204,-0.0015050615184009,still,queen
1772702277528877600,3.841877685546875,0.0649345367252826,-0.0201407634383649,-0.019167303879885,0.0005945055745542,0.0053213313221931,0.0006985077634453,still,queen
1772702277538825500,3.851825439453125,0.0658317778259515,-0.0147488698080589,-0.0054658516323717,0.0008557615801692,0.0013987615238875,0.001009564846754,still,queen
1772702277548772600,3.861772705078125,0.0599959112793207,-0.0020949674091265,0.0003029650019481,-0.002972584683448,-0.001906229648739,0.0009222598746418,still,queen
1772702277558720500,3.871720458984375,0.0535620788395404,-0.0053128895603644,0.0136286233316757,-0.002278032246977,-0.0034737661480903,-0.0001246286556124,still,queen
1772702277568668700,3.881668701171875,0.0595481675118207,-0.0087517477142886,-0.008789701108745,-0.0007662470452487,-0.0023767310194671,0.0010068658739328,still,queen
1772702277578616600,3.891616455078125,0.0546101265877485,-0.002028567805959,-0.0154825509525369,0.0003706561401486,-0.0026619555428624,0.0003924746997654,still,queen
1772702277588564500,3.901564453125,0.0585007042855024,-0.0048982620403548,-0.0209183876142022,-0.0002896427176892,0.0044057937338948,-0.000990561209619,still,queen
1772702277598512400,3.911512451171875,0.0646358460396528,-0.0045454679743663,-0.0148251658976834,-0.0022380109876394,-0.0004925583489239,0.0022278688848018,still,queen
1772702277608459500,3.92145947265625,0.0641869332283735,-0.0059591076213429,-0.005593236305128,0.0004873131401836,-0.0008863969705998,-0.0008018079679459,still,queen
1772702277618407400,3.931407470703125,0.0520662873238325,-0.0013835969913954,-0.0016592589987092,0.0012521729804575,-0.004601240158081,0.0012783869169652,still,queen
1772702277628355600,3.94135546875,0.0143581956982612,-0.0049414698527747,0.0024056135367369,0.0005279267206788,-0.0071848733350634,0.0011984412558376,still,queen
1772702277638303500,3.951303466796875,0.082593527534604,-0.0111355997979,-0.0109347411802678,-0.0017964802682399,-0.0060660792514681,0.0011944468133151,still,queen
1772702277648251600,3.961251708984375,0.0456336239278316,-0.0111648099093639,-0.0114179444202163,3.85702587664e-05,-0.0018824194557964,-0.0004857424646615,still,queen
1772702277658199600,3.971199462890625,0.0463812274247407,-0.0103000086319283,-0.0192002015024889,0.0008985050953924,0.0055344840511679,0.0011923154816031,still,queen
1772702277668147500,3.9811474609375,0.0968085153698921,-0.0030023858407541,-0.0102342898768896,-0.0002086427994072,0.0022155884653329,-0.0010159227531403,still,queen
1772702277678094300,3.99109423828125,0.0305190569043159,-0.0050166402811039,-0.0062244582971965,-0.0030124187469482,0.0002816007472574,-0.0007466771639883,still,queen
1772702277688042500,4.00104248046875,0.07256722356081,-0.0094364854253042,-0.0035001661661488,-0.0006514731794595,-0.0004928377456963,0.0018086028285324,still,queen
1772702277697990400,4.010990478515625,0.0462310052990913,0.0003115312587189,-0.0049466900214087,-0.0001449403353035,0.0022385001648217,-0.0008609499782323,still,queen
1772702277707938600,4.0209384765625,0.0421907899975776,-0.0024216191046332,-0.0080878604242345,-0.0030253659933805,0.002035240875557,0.0010854182764887,still,queen
1772702277717886500,4.030886474609375,0.0872317087292671,0.0048766181765939,-0.0172344304129423,0.00033421209082,0.0022030200343579,-0.0004895748570561,still,queen
1772702277727834400,4.04083447265625,0.0564057778328657,-0.0068841580359003,-0.0108689619180804,-0.0013028434477746,0.0055774836800992,0.0013112141750752,still,queen
1772702277737781500,4.050781494140625,0.0680769264042377,-0.0150084774421819,-0.0156464579685998,-8.5472129285e-06,0.0006253356114029,0.0005825734697282,still,queen
1772702277747729700,4.060729736328125,0.0698725776493549,-0.0153019245554693,-0.0052927098554384,0.0026068738661706,0.0002974374219775,-0.0004845573566854,still,queen
1772702277757677600,4.070677490234375,0.0537117164433002,-0.0109526638543815,0.0051283918474218,0.0018018004484474,-0.0003734128549695,-0.0016483585350215,still,queen
1772702277767625500,4.08062548828125,0.0459305610477924,-0.0120378298842289,0.0003388948318548,0.001749990042299,-0.0026061362586915,0.0003105094656348,still,queen
1772702277777573600,4.09057373046875,0.0514677369087934,-0.0085664040429081,-0.0042214810193981,0.0009987126104533,-0.0031369044445455,0.0004231613129377,still,queen
1772702277787521500,4.100521484375,0.0760088884472846,-0.0084478328642697,-0.0118684190009196,0.0016183881089091,-0.0018524415791034,0.0006219651550054,still,queen
1772702277797468400,4.110468505859375,0.0637386049389839,-0.0088890127477759,-0.0122505775857658,-0.0009212023578584,-0.0007016896270215,0.001487492583692,still,queen
1772702277807416300,4.120416259765625,0.0718190355420112,-0.0046434675786673,-0.0218078678168123,-0.0007032938301563,0.0031548705883324,8.31177458167e-05,still,queen
1772702277817364500,4.130364501953125,0.0641869332283735,-0.0088167432376532,-0.0152420727105694,-0.0007629483006894,-0.0011392100714147,-0.0005717538297176,still,queen
1772702277827312400,4.1403125,0.0380003525704145,-0.0024974339911786,0.0021333188093325,0.0002181399613618,-0.0001467065885663,-0.0014249738305807,still,queen
1772702277837260500,4.150260498046875,0.0971072060555219,-0.0060775298153981,0.0038136205960705,-0.0001531047746539,-0.0002604238688945,0.0006147413514554,still,queen
1772702277847208400,4.16020849609375,0.0249818810433149,-0.0140069962239707,0.0081951156244147,-0.0011193212121725,0.0010547884739935,-0.002244000788778,still,queen
1772702277857156600,4.170156494140625,0.0559568650215864,-0.0092589620174869,0.0021951890813827,-0.0009022736921906,-0.0029548667371273,-0.000355286989361,still,queen
1772702277867103500,4.180103515625,0.0749608406990766,-0.0047209669614006,-0.0134302740482497,0.0003166771493852,-0.0006926548667252,0.0013841236941516,still,queen
1772702277877051600,4.1900517578125,0.0499713608711957,-0.0065167061131302,-0.0218515265787369,-0.0010292846709489,0.0036576187703758,0.0012573571875691,still,queen
1772702277886999600,4.19999951171875,0.0629892478764057,-0.0018603557918868,-0.0198242653846973,-0.0022451691329479,0.0027676348108798,-0.0012425682507455,still,queen
1772702277896947500,4.209947509765625,0.0574526565372943,0.0028938240286544,-0.0087938076033489,0.0019120250362902,-0.0003575845621526,-0.001826066756621,still,queen
1772702277906895400,4.219895263671875,0.0405436073124408,-0.0021244901884274,0.0001338121302542,-0.0009067556820809,-0.0015543289482593,0.0022643255069851,still,queen
1772702277916843500,4.229843505859375,0.0641863487064838,-0.0057770661561458,0.001629697260796,0.0006117788143455,-0.0039676860906183,-0.0026524025015532,still,queen
1772702277926790400,4.239790283203125,0.0625409195870161,-0.0087343227970966,-0.000910032083583,0.0012273336760699,-0.0021855514496564,0.0016315774992108,still,queen
1772702277936738600,4.249738525390625,0.0622416443794965,-0.0118446305583114,-0.0035795218625396,-0.0024409042671322,0.0006781453266739,-4.86108474433e-05,still,queen
1772702277946686500,4.2596865234375,0.0599970803231,-0.0119344300169032,-0.0168726090799376,-0.0010798540897667,0.0001498544588685,0.0003708563745021,still,queen
1772702277956634600,4.269634521484375,0.0487742600411176,-0.0061876231433474,-0.0129280236145365,-5.02760522067e-05,9.15313139557e-05,0.0011218679137527,still,queen
1772702277966582500,4.27958251953125,0.0706213501900434,-0.0007094697226508,-0.0149252641296479,0.003983988892287,-0.0020349845290184,0.00198231684044,still,queen
1772702277976530400,4.289530517578125,0.0480266565442085,-0.0076919364630506,-0.0034900808802631,0.001018292736262,0.0002777045592665,0.0007833614945411,still,queen
1772702277986478600,4.299478515625,0.0628401947945356,-0.0136156907848664,5.43593940965e-05,0.0005418588407337,0.000391979701817,0.0014683152548968,still,queen
1772702277996425500,4.309425537109375,0.0691249741524457,-0.006475673703954,-0.0035564926134014,0.0022204492706805,0.0029398261103779,0.000572161283344,still,queen
1772702278006373400,4.319373291015625,0.0549088172733783,-0.0079028078721545,-0.0067296301987138,0.0016822242178022,0.0006974441930651,0.0024448158219456,still,queen
1772702278016321500,4.329321533203125,0.0751098937809467,0.0005827088158075,-0.0084077525864529,0.0002803364768624,-0.0015619816258549,0.0004096277989447,still,queen
1772702278026269400,4.33926953125,0.0583504821598529,-0.0066830311318539,-0.0066705934878555,-0.0015224711969494,-0.0018437881954014,-0.0015937681309878,still,queen
1772702278036217300,4.34921728515625,0.0623906974613666,-0.0155813271603838,-0.0074928011575131,-0.0018452466465532,0.0020982229616492,0.0003173160366714,still,queen
1772702278046165500,4.35916552734375,0.061492871838808,-0.0130805061959312,-0.0137427786301006,0.0005595460534095,0.0024748139549046,-0.0007356780115514,still,queen
1772702278056112600,4.369112548828125,0.0635877982914447,-0.0113851050214725,-0.0055910203735111,-0.0016221152618527,-0.0012837052345275,0.0032830322161316,still,queen
1772702278066060500,4.379060546875,0.0616425094425678,-0.010658204102586,-0.0041579268219822,0.0014582136645913,-0.0031254580244421,-0.0004540467634797,still,queen
1772702278076008400,4.389008544921875,0.0596978051155805,-0.0106093942415085,-0.0071059389980859,-0.0010097376070916,0.0008868603035807,-8.14702361822e-05,still,queen
1772702278085956600,4.39895654296875,0.0565554154366254,-0.008354935553827,-0.0042832040193316,-0.0004914836026728,-1.67251564562e-05,3.7339515984e-05,still,queen
1772702278095904500,4.408904541015625,0.0481757096260786,-0.012077531706955,-0.0114968993994523,-0.0004733740352094,-0.0013565616682171,0.0030847946181893,still,queen
1772702278105852700,4.418852783203125,0.0562561402291059,-0.0047398982782673,-0.0186999535129056,0.0014975005760788,0.0003599696792662,0.000145033467561,still,queen
1772702278115800600,4.428800537109375,0.0704717125862836,0.0009024753257985,-0.0177708788021351,0.0022908563259989,-0.0003452356904745,0.0007897848263382,still,queen
1772702278125747500,4.43874755859375,0.0561065026253461,-0.0009974724769017,-0.0047134977534646,-0.0017530778422951,0.0044954582117497,-0.000983330188319,still,queen
1772702278135695400,4.4486953125,0.0514671523869037,-0.0008339296453756,-0.0070257167936593,-0.0003053834661841,0.0007534506730735,-0.0008517699316143,still,queen
1772702278145643500,4.4586435546875,0.04742693708539,0.0011776407891877,-0.0030490945054683,-0.002615469507873,-0.0020434358157217,0.0017554596997797,still,queen
1772702278155591400,4.46859130859375,0.0670294631779193,-0.0049066188767465,-0.0083376818832824,-0.0002793450839817,0.0002122614532709,-0.000946317333728,still,queen
1772702278165539600,4.47853955078125,0.1000993736088275,-0.0084775150456582,-0.0067712728167767,0.0001257215626537,-0.0071412585675716,0.0009429403580725,still,queen
1772702278175487500,4.488487548828125,0.0155547120064496,-0.0101225023487757,0.000922573046392,0.0027657132595777,0.0016594231128692,-0.0011923820711672,still,queen
1772702278185434600,4.4984345703125,0.08558511056602,-0.0122607313703105,-0.0069454169574193,0.0003680693916976,-0.0026844586245715,0.0009684138931334,still,queen
1772702278195382500,4.508382568359375,0.047876434418559,-0.0030673636686318,-0.0132077378883492,-0.0003949264064431,0.0050988956354558,-0.0003415951505303,still,queen
1772702278205330700,4.51833056640625,0.0646352615177631,-0.0073749280943738,-0.0172681089202582,0.0004010321572422,0.0044980510137975,-0.0010135639458894,still,queen
1772702278215278300,4.5282783203125,0.0748106185734271,-0.0062380381563329,-0.0080506907686009,-0.0015571904368698,-0.0032128654420375,-0.0010207544546574,still,queen
1772702278225226500,4.5382265625,0.0366530296146869,-0.0011251822328769,0.0070673468536348,-0.0005461936816573,0.0006048115901648,-0.0006884175818413,still,queen
1772702278235174400,4.54817431640625,0.0740624305546283,0.0031045764213384,-0.0007767211351834,-0.0028652744367718,-0.0075990566983819,0.002550252713263,still,queen
1772702278245122600,4.55812255859375,0.0426391182869672,0.0066846168758085,-0.0005155380319047,-0.0031670955941081,-0.0001919004134833,-0.0006662500090897,still,queen
1772702278255069400,4.5680693359375,0.0719680886238813,0.0001227441561854,-0.0150145692562509,-0.0037002600729465,-0.0011977762915194,0.0024911938235163,still,queen
1772702278265017600,4.578017578125,0.0442851319283247,-0.0095333328250795,-0.0229421553766354,-0.0028918837197124,-0.0034116674214601,-0.000983994686976,still,queen
1772702278274965500,4.587965576171875,0.0604448240906,-0.005818998751865,-0.022222492482711,-0.0033092009834945,0.019207626581192,0.0608793757855892,still,queen
1772702278284913700,4.59791357421875,0.1203027882039547,-0.0133752068346773,-0.0561697953862138,0.0038972559850662,-0.0279290061444044,-0.0690313875675201,still,queen
1772702278294861600,4.607861572265625,0.0351584071427583,-0.0320182619365281,-0.0067269713091023,0.0005800225771963,0.0102881547063589,0.0716951042413711,still,queen
1772702278304809500,4.6178095703125,0.0574561636686325,-0.0065678540617664,0.0380318825031281,0.0058029843494296,-0.0101163359358906,-0.0700211822986602,still,queen
1772702278314757600,4.627757568359375,0.1406529177933931,-0.0162076058325648,0.0096214175339089,0.0003661410883069,0.0146334851160645,0.0759048610925674,still,queen
1772702278324704500,4.63770458984375,0.0157061031758785,-0.0123241303040995,-0.0039310843797225,0.0048687472008168,-0.008196729235351,-0.0720489174127578,still,queen
1772702278334652400,4.64765234375,0.0827425806164741,-0.0062155129431601,-0.0257671816355315,-0.0016996730118989,0.0007150066085159,0.080488696694374,still,queen
1772702278344600300,4.657600341796875,0.0439893638521432,0.000189240816958,-0.0022565804336423,-0.0038260603323578,-0.0196382720023393,-0.0746006220579147,still,queen
1772702278354548500,4.667548583984375,0.0733183341890573,-0.0095127672443748,-0.0098038774117478,-0.0191512200981378,-0.012757996097207,0.0826571732759475,still,queen
1772702278364496400,4.677496337890625,0.0822983439803123,-0.0040264116800914,-0.008414921541934,-0.0247542727738618,-0.0109189432114362,-0.0776944160461425,still,queen
1772702278374444500,4.687444580078125,0.1010018754065036,-0.0097154684759327,-0.0166786311525967,-0.0367598049342632,0.0068392809480428,0.0841991454362869,still,queen
1772702278384392400,4.697392333984375,0.0682283175736665,-0.0139820901115774,-0.0164111507392721,-0.0357828401029109,0.0138527378439903,-0.0761859342455864,still,queen
1772702278394339600,4.707339599609375,0.1068295586466789,-0.0200494798421626,-0.0195389091046759,-0.0372680835425853,0.01346365083009,0.0845755115151405,still,queen
1772702278404287500,4.71728759765625,0.0411339744210243,-0.0233083537739468,0.0025427307272853,-0.0308244749903678,0.0043553160503506,-0.0779160633683204,still,queen
1772702278414236000,4.72723583984375,0.0351432095736265,-0.0163687306614301,-0.0169711192846589,-0.0268228091299533,-0.0104023246094584,0.084008127450943,still,queen
1772702278424183800,4.737183837890625,0.0475602080762386,-0.0182447319751372,0.0027818818077357,-0.0177951976656913,-0.0080807209014892,-0.0801366046071052,still,queen
1772702278434132000,4.747132080078125,0.0391775796562433,-0.0078131671021226,-0.0138647610419546,-0.0079239252954721,-0.0111508127301931,0.0789044424891471,still,queen
1772702278444079900,4.757079833984375,0.0720978524833917,0.0004109508544905,-0.0027621130947634,0.0016849115490913,0.0068697119131684,-0.0792431756854057,still,queen
1772702278454027800,4.76702783203125,0.0454623590141534,0.0054261098520946,-0.0184271804365329,0.006436257623136,0.0009439121931791,0.0775565579533577,still,queen
1772702278463974700,4.776974609375,0.0548918661385774,0.0118063238249393,-0.0098084211561246,0.0118307806551456,0.0128209143877029,-0.0779834017157554,still,queen
1772702278473922800,4.7869228515625,0.0352910936117172,0.0061348175271647,-0.0039851674958947,0.0184050612151622,-0.0135611575096845,0.0738591253757476,still,queen
1772702278483870700,4.79687060546875,0.0495119266659021,-0.0026447903041844,-0.0092939454242557,0.022043352946639,0.0042888983152806,-0.0749209970235824,still,queen
1772702278493819000,4.80681884765625,0.0421831912130117,-0.0067657826492621,-0.0078772264771483,0.0248322170227766,-0.0163828246295452,0.0691035538911819,still,queen
1772702278503766800,4.816766845703125,0.0649321986377239,-0.0193740739317843,-0.0121399225688131,0.0222669094800949,0.0108893010765314,-0.0680249482393264,still,queen
1772702278513714700,4.826714599609375,0.0626893881469965,-0.0169661782480601,-0.0173938644665759,0.0235995557159185,-0.0101896189153194,0.0646574646234512,still,queen
1772702278523662800,4.836662841796875,0.0793015002518892,-0.0372142003115383,-0.0055786386700841,0.0178917795419693,0.0175398495048284,-0.0643892660737037,still,queen
1772702278533610000,4.84660986328125,0.0770575207173824,-0.0216122265137033,-0.0096419465819955,0.01358731277287,-0.0173038840293884,0.0606299005448818,still,queen
1772702278543558000,4.856557861328125,0.074365212893486,-0.0289975213092868,-0.0009209079581574,0.0028473171405494,0.0129200648516416,-0.0609223656356334,still,queen
1772702278553505800,4.866505859375,0.0463829809904098,-0.0054508584175724,-0.0033944276404421,-0.0042942152358591,-0.0265549086034297,0.0569075979292392,still,queen
1772702278563453700,4.87645361328125,0.0869347716093063,-0.0156406755401403,-0.0109289199359016,-0.0133233917877078,0.0166677124798297,-0.0539741031825542,still,queen
1772702278573401600,4.886401611328125,0.0972580127030611,-0.0016413340413069,-0.0082013290236034,-0.0213887766003608,-0.0202559493482112,0.054487656801939,still,queen
1772702278583349800,4.896349853515625,0.1006979240238666,-0.0173841273822065,-0.0224876576413633,-0.0259860772639513,0.0226981751620769,-0.0455511659383773,still,queen
1772702278593297700,4.906297607421875,0.0646305853426456,-0.0123984079665737,-0.011487307303911,-0.0337603762745857,-0.0197824407368898,0.0481838472187519,still,queen
1772702278603244800,4.916244873046875,0.0571446135014295,-0.0236320213539176,-0.0167325590051419,-0.0337201654911041,0.0187343247234821,-0.037047691643238,still,queen
1772702278613192700,4.926192626953125,0.0896083747327327,-0.0139104313811636,-0.0033362717081734,-0.0423554629087448,-0.0263410080224275,0.042323563247919,still,queen
1772702278623140900,4.936140869140625,0.0623661475419998,-0.0321076595363207,-0.0102437541082676,-0.0376062169671058,0.0201030727475881,-0.0298580545932054,still,queen
1772702278633088800,4.9460888671875,0.0455962145268917,-0.0173097207139246,4.41251236276e-05,-0.0400629863142967,-0.0225077699869871,0.0360155031085014,still,queen
1772702278643037000,4.956036865234375,0.0593529372006654,-0.0129403602230129,-0.0153792846575961,-0.0307439938187599,0.0243798792362213,-0.0237638764083385,still,queen
1772702278652984800,4.96598486328125,0.0638303748756647,-0.0009253392505692,-0.0011940303776907,-0.0308513194322586,-0.0135123766958713,0.0160437244921922,still,queen
1772702278662933000,4.97593310546875,0.053197337180376,0.0097798024164163,-0.0020064547263842,-0.0221460349857807,-0.0004586381837725,-0.0013143927790224,still,queen
1772702278672881000,4.985880859375,0.0427156906545162,0.005127795909089,0.0019018715447251,-0.0162814874202013,-0.000576882623136,-0.0006102530751377,still,queen
1772702278682827800,4.995827880859375,0.0543833320945501,0.0095717514395946,-0.026570828451903,-0.0053663146682083,-0.0028843018226325,-0.003442759392783,still,queen
1772702278692775700,5.005775634765625,0.0358282692283391,0.001700456375489,-0.0021528791722172,0.004738250747323,-0.0007263426668941,-0.0001646745949983,still,queen
1772702278702723800,5.015723876953125,0.0524415503770112,-0.0120948767090449,0.0011352082959638,0.011730233207345,0.0057359095662832,0.0005099396221339,still,queen
1772702278712671700,5.025671630859375,0.0397276147544383,-0.0076136305086081,0.0014574379749188,0.0183058436959981,0.0048312335275113,-1.23064965009e-05,still,queen
1772702278722619600,5.03561962890625,0.0473667313307523,0.0055807524245348,0.0005224073057528,0.0243241153657436,-0.000622930470854,-0.0035468558780848,still,queen
1772702278732567800,5.04556787109375,0.0581494066298007,-0.0043202675020438,-0.0118651219321356,0.022919563576579,-0.0153781734406948,-0.0016557450871914,still,queen
1772702278742515700,5.055515625,0.0496282465219497,-0.0073304890185594,-0.0037571839801414,0.0209022518247365,-0.0096663627773523,-0.0005537290126085,still,queen
1772702278752462800,5.065462890625,0.0728285048454999,-0.0024639629777171,-0.0187762324778654,0.0194617472589015,0.0097155906260013,-0.0023934405762702,still,queen
1772702278762410800,5.07541064453125,0.0840565858244895,-0.001297652294836,-0.0211349004586925,0.0168400108814239,0.0036339475773274,-0.0012988485395908,still,queen
1772702278772359000,5.08535888671875,0.071938862529397,-0.0067321189833222,0.0033164539044955,0.0098377615213394,0.0077370796352624,-0.0028312313370406,still,queen
1772702278782306800,5.095306884765625,0.0831634363770484,0.0024080566555727,0.0102885670725954,0.000371849630028,0.0018782976549118,-0.0036351722665131,still,queen
1772702278792254700,5.105254638671875,0.0586234538823366,0.0067567693673889,0.0091306657417444,-0.0012769130989909,-0.0111711919307708,0.0028416356071829,still,queen
1772702278802202600,5.11520263671875,0.0667032999634742,0.0003840217483695,-0.0150090905051794,-0.0076080113649368,-0.0068154837936162,-5.39203174412e-05,still,queen
1772702278812150800,5.12515087890625,0.115333767619729,-0.0202237655467004,-0.023482507047744,-0.0075608734041452,-0.0042236950248479,0.0026936628855764,still,queen
1772702278822098700,5.1350986328125,0.076125792825222,-0.0344815216613467,-0.0184104987297905,-0.0091985147446393,0.0106189083307981,0.0002504792064428,still,queen
1772702278832045800,5.1450458984375,0.0224029704660177,-0.0290194477300159,-0.0083508170719578,-0.0088006388396024,0.0090814651921391,-0.002771143335849,still,queen
1772702278841993700,5.15499365234375,0.0578641599476337,-0.023391419814364,0.0015244570628332,-0.0105564277619123,0.0039017256349325,0.0002644271589815,still,queen
1772702278851942000,5.16494189453125,0.1088876602202653,-0.0156722602717811,0.0030964025334484,-0.0074722194112837,-0.003328756429255,0.0010157050564885,still,queen
1772702278861889800,5.174889892578125,0.0250894330710172,-0.0162959131620358,0.0115542407685017,-0.0055985986255109,-0.016380725428462,0.0018119569867849,still,queen
1772702278871838000,5.184837890625,0.0337666605234146,-0.0053647830027388,-0.0036231866180969,-0.0061197788454592,-0.0043171378783881,-0.000419239513576,still,queen
1772702278881785900,5.194785888671875,0.0439408485352992,0.0044472457494237,-0.0232377385064377,-0.0033432599157094,0.0023651234805583,-0.0006771993357688,still,queen
1772702278891733800,5.204733642578125,0.0458849683403968,0.0008629187059588,-0.0206071068750577,-0.0042934753000736,0.0083364630118012,-0.0013832033146172,still,queen
1772702278901682000,5.214681884765625,0.0835930599659681,0.008561295755417,-0.0251164854747243,0.0011892379261553,0.0144073972478508,8.44639725983e-05,still,queen
1772702278911628800,5.22462890625,0.1069371106743812,-0.0061031962629058,-0.0009779593495506,0.0044342996552586,-0.0064552742987871,0.0004623667337,still,queen
1772702278921576700,5.23457666015625,0.0179050745248794,-0.0172666898563737,0.0160331032156071,0.0054311207495629,-0.0071777896955609,-7.58580863475e-05,still,queen
1772702278931524900,5.24452490234375,0.0039911154627799,-0.0111596371189691,0.003977985411504,0.0077848224900662,-0.0113946394994854,0.0004466539248824,still,queen
1772702278941472800,5.25447265625,0.1105360119491815,-0.0202073076022439,-0.0143393813999369,0.006940122693777,-0.0117402616888284,0.0032083187252283,still,queen
1772702278951420700,5.264420654296875,0.0803115540772676,-0.0241822459650691,-0.0213634211180964,0.0078847464174032,0.0061631049029529,-0.0008820302318781,still,queen
1772702278961368800,5.274368896484375,0.0514332501173019,-0.0223173631253535,-0.0096677271939348,0.0083385277539491,0.0110431564971804,-0.0007618884555995,still,queen
1772702278971316700,5.284316650390625,0.0903401961386203,-0.0121112775712856,-0.0144308613589615,0.0042846640571951,0.002972713438794,-0.0002819867804646,still,queen
1772702278981265000,5.294264892578125,0.0351245048731565,-0.003016806520929,0.0083933775720506,0.001372467726469,0.0060221487656235,-0.000540480017662,still,queen
1772702278991211800,5.304211669921875,0.0663987640589475,0.0094042105696746,0.0091279937232233,-0.0031876624561846,-0.0030363271944224,-0.000352993607521,still,queen
1772702279001160000,5.314159912109375,0.0880962166041135,0.0105832391702337,-0.0032139753441326,-0.005790407769382,-0.0233030933886766,-0.0011975814122706,still,queen
1772702279011107600,5.324107666015625,0.0791162068128585,0.0078050842603668,-0.0157640907156106,-0.0112472251057624,0.0026693851687014,0.0013752984814345,still,queen
1772702279021055700,5.3340556640625,0.0511287142127752,0.067033673562156,0.0193388884539715,-0.0184386428445577,0.0361291356384754,-0.0024552594404667,still,queen
1772702279031003600,5.344003662109375,0.1376116504013538,0.2151157093098387,0.0907279807466548,-0.0162663012742996,-0.0024065379984676,-0.004791650455445,still,queen
1772702279040951800,5.353951904296875,0.0048813423007726,-0.054484577679052,-0.1097285223580431,-0.0057632108218967,-0.0506799928843975,-0.0031161229126155,still,queen
1772702279050899700,5.363899658203125,-0.0262444483250379,-0.150913121854607,-0.158548804364819,-0.0104058980941772,-0.0074960375204682,0.003005152568221,still,queen
1772702279060847900,5.373847900390625,0.1622954252809286,0.1171644810450728,0.0705611627017147,-0.0049030971713364,0.0400979295372962,-0.0009053994435817,still,queen
1772702279070794800,5.383794677734375,0.0883744490236043,0.0095778021544683,0.0235433361401781,0.0122476601973176,0.0211548637598752,-0.003988008480519,still,queen
1772702279080743000,5.393742919921875,-0.0120294604897499,-0.2092053162222728,-0.0792675157838966,0.0112518751993775,0.0126898568123579,-0.0007375206332653,still,queen
1772702279090690800,5.40369091796875,0.0575555323898792,0.0217745318027911,0.1281727178614586,0.0162852499634027,-0.0143774468451738,0.0011258930899202,still,queen
1772702279100639000,5.413638916015625,0.0030950434058904,-0.051185851227492,0.0546072770435363,0.0214003324508667,-0.0517080947756767,-0.0002906080335378,still,queen
1772702279110587000,5.4235869140625,0.0113321258753538,-0.1871882215349934,-0.0971480860551819,0.0224991533905267,-0.0250996518880128,0.0032607172615826,still,queen
1772702279120534800,5.43353466796875,0.1118950253427028,-0.0259255322687095,-0.0345727984076831,0.0202364083379507,0.0168240461498498,-0.0029084621928632,still,queen
1772702279130483000,5.44348291015625,0.1195306347876787,-0.0391656608895864,-0.0720339021353982,0.0143817150965332,0.0382670201361179,-0.0047175474464893,still,queen
1772702279140430600,5.4534306640625,0.0975339070349931,-0.0340753657129826,-0.0350097467865329,0.0061953016556799,0.0360608100891113,-0.003104971256107,still,queen
1772702279150377700,5.463377685546875,0.0720937608301639,0.0656403195076156,0.0793801915112882,-0.0058645573444664,0.0012016280088573,0.0003049401566386,still,queen
1772702279160326000,5.473325927734375,0.0218155259668827,0.0289108088569249,0.0608633006644202,-0.0140723902732133,-0.0362041816115379,0.003350964281708,still,queen
1772702279170273800,5.483273681640625,0.0369254168152809,0.0334166049767285,0.0288541011004708,-0.0208615865558385,-0.0339279770851135,0.0020734458230435,still,queen
1772702279180221700,5.4932216796875,0.0885445448935031,0.0655457091598771,-0.010577795810136,-0.0233000759035348,-0.0090781264007091,0.0018463470041751,still,queen
1772702279190169900,5.503169921875,0.0836000742286443,0.0031830139502882,-0.0837053612340241,-0.0224305540323257,0.0239085853099823,0.0009627104736864,still,queen
1772702279200117800,5.51311767578125,0.0861357301861047,-0.0300943720687064,-0.0770118184121325,-0.0203103423118591,0.0333667546510696,0.0004871003329753,still,queen
1772702279210066000,5.52306591796875,0.062636196655035,-0.0431817372636869,-0.0239842300417833,-0.0104206930845975,0.0198719855397939,0.0016618208028376,still,queen
1772702279220013800,5.533013916015625,0.024026772275567,-0.0523976701360894,0.0301454401022405,-0.0058327484875917,-0.0046599209308624,-0.0010771066881716,still,queen
1772702279229962000,5.5429619140625,0.0193874220371246,-0.0195254856508108,0.0644970403571613,-0.0017482582479715,-0.0271548423916101,0.0004294435493648,still,queen
1772702279239908600,5.55290869140625,0.0246264917343854,0.0008200088627054,0.0349190088963136,0.0038015369791537,-0.0279624499380588,-0.0011391586158424,still,queen
1772702279249856800,5.562856689453125,0.058596565875411,-0.0061516362312249,-0.0262277255191002,0.00703860912472,-0.0089943520724773,-0.0011476809158921,still,queen
1772702279259804700,5.5728046875,0.0780512079298496,0.0016544298432534,-0.0544207277957582,0.0074627827852964,0.0150063699111342,-0.001317354151979,still,queen
1772702279269752800,5.5827529296875,0.0997509985625743,0.0180948706090915,-0.0505272457548649,0.0084798438474535,0.0257357135415077,-0.0004177382215857,still,queen
1772702279279700700,5.59270068359375,0.0645879152446985,0.0215745088687981,-0.0149321916273562,0.0070196795277297,0.0127368746325373,0.0002384283579885,still,queen
1772702279289649000,5.60264892578125,0.0612982260495424,0.0194037201513769,0.0227807999356184,0.0072479122318327,-0.0127040371298789,0.0014994353987276,still,queen
1772702279299596800,5.6125966796875,0.0294289235800504,-0.0128143044242402,0.0253021373900701,0.0061575495637953,-0.0243191644549369,0.0009027202613651,still,queen
1772702279309544700,5.622544677734375,0.0331722017616033,-0.0410131108205998,-0.0002383633458724,0.004680027719587,-0.0192176103591918,0.0001679542474448,still,queen
1772702279319491800,5.632491943359375,0.0601093085259199,-0.0617569889679783,-0.0372076952222269,0.0068526286631822,0.0054960097186267,0.0015985048376023,still,queen
1772702279329440000,5.64243994140625,0.0990156700253486,-0.0480792635142803,-0.039433581977617,-0.000153615605086,0.0278686936944723,-0.0042109149508178,still,queen
1772702279339388000,5.652387939453125,0.0909340703785419,0.0057340090407757,-4.01442098984e-05,-7.24610872566e-05,0.0199977662414312,-0.000517408363521,still,queen
1772702279349335800,5.662335693359375,0.0372130015850067,-0.0212973769944277,0.0132549106314778,-0.0048528355546295,-0.0081489160656929,0.0012599849142134,still,queen
1772702279359283700,5.67228369140625,0.0449935724586248,-0.0388548870405182,0.0138596213592449,-0.0038930983282625,-0.0253886394202709,0.0030404077842831,still,queen
1772702279369231600,5.682231689453125,0.0399041403651237,-0.0334520804321975,-0.0179016050678037,-0.0092985164374113,-0.0166657213121652,-0.0020118751563131,still,queen
1772702279379179800,5.6921796875,0.0767126528024673,-0.009138787399407,-0.0390130961098009,-0.0079306010156869,0.0113286953419446,0.0009869770146906,still,queen
1772702279389127700,5.702127685546875,0.1100789158314466,-0.0081214407501392,-0.0393645444625522,-0.0053425412625074,0.02808796800673,0.0010176030918955,still,queen
1772702279399075800,5.712075927734375,0.0823924520045518,0.0042360575340222,-0.0066359776905563,-0.0086074620485305,0.0169301908463239,-0.0023628810886293,still,queen
1772702279409022700,5.722022705078125,0.0404915848642587,0.022585960066819,0.0253698871303466,-0.0072913276962935,-0.0092923585325479,-0.0005266317166388,still,queen
1772702279418971000,5.731970947265625,0.0283697699159383,-0.0025738393932464,0.0320776776732993,-0.0059142750687897,-0.0232150517404079,0.0005172975361347,still,queen
1772702279428918800,5.741918701171875,0.0517120670586824,-0.0020716300587286,0.0112355233582842,-0.0024095554836094,-0.0191068593412637,0.0020805732347071,still,queen
1772702279438867000,5.751866943359375,0.0692202512204647,0.0149424367434461,-0.0245055208193953,-0.0002262676134705,-0.0026760706678032,-0.001894827466458,still,queen
1772702279448814800,5.76181494140625,0.0484212088197469,-0.0061351554538821,-0.0516382346374914,0.0046648941934108,0.0158158540725708,-0.0009004031307995,still,queen
1772702279458763000,5.771762939453125,0.0846346779733896,-0.0230640944060054,-0.0399465912673622,0.0062094032764434,0.0219487994909286,-0.004497236572206,still,queen
1772702279468711000,5.7817109375,0.060993105623126,-0.0059899930958403,0.0051948081471375,0.008048316463828,0.0063922093249857,-0.0016178267542272,still,queen
1772702279478658800,5.791658935546875,0.0167038820415735,0.0058896516936365,0.0213419011227437,0.007603891659528,-0.0155801670625805,-0.0012324007693678,still,queen
1772702279488606000,5.80160595703125,0.0358604179322719,-0.0009564604746177,0.0286466483452706,0.0053252913057804,-0.0172571614384651,-0.0004422408528625,still,queen
1772702279498554000,5.81155419921875,0.0560632480055093,-0.0101880224577034,0.0011909385194725,0.0069067827425897,-0.0068068304099142,0.0018630228005349,still,queen
1772702279508501800,5.821501708984375,0.0984124434351921,-0.0288938714218558,-0.0421439917137846,0.0048236581496894,0.0045416974462568,0.0010195998474955,still,queen
1772702279518449700,5.83144970703125,0.0551689295142889,-0.0465437016771873,-0.0497408583172597,0.007888650521636,0.0107217598706483,-0.0002063834108412,still,queen
1772702279528397800,5.841397705078125,0.046790977269411,-0.0554652501463191,-0.0510909212193451,0.0070492224767804,0.0049525541253387,-7.50897452235e-05,still,queen
1772702279538345700,5.851345703125,0.064299745953083,-0.0670357467882335,-0.032522181454231,0.004123558755964,-0.0009754593484103,-0.0010373236145824,still,queen
1772702279548294000,5.8612939453125,0.0467933153569698,-0.0632514287768164,-0.0086465240701683,0.0007943408563733,-0.0008851778693497,-0.0014594346284866,still,queen
1772702279558241800,5.87124169921875,0.0584644639283418,-0.0288235803813324,0.0172665460091899,-0.0032979394309222,0.0021907568443566,-0.0021451006177812,still,queen
1772702279568190000,5.88118994140625,0.084050156083703,0.0145558599950978,0.0296235648027388,-0.0122464261949062,0.0025159288197755,-0.002956033218652,still,queen
1772702279578136800,5.89113671875,0.078807579255104,0.0574859468855429,0.0334431847396888,-0.0208686757832765,0.0031457664445042,0.0008072797209024,still,queen
1772702279588085000,5.9010849609375,0.0768541070997715,0.1342744505363516,0.0535827152021927,-0.0313649922609329,-0.0008937162347137,-0.0005826239939779,still,queen
1772702279598033000,5.911032958984375,0.0681628511220216,0.1952167758203111,0.0401208016233751,-0.0402329303324222,-0.008380077779293,0.0009960657916963,still,queen
1772702279607981000,5.92098095703125,0.0507920296043157,0.1696094015561044,0.0060675781018973,-0.0348277762532234,-0.0211536642163991,0.0028887744992971,still,queen
1772702279617929000,5.930928955078125,0.0476385340094566,0.0679270102392649,-0.0529593956720782,-0.0198636855930089,-0.0148043883964419,0.0037900549359619,still,queen
1772702279627876900,5.940876953125,0.0229430686920881,-0.0457351069743512,-0.0916390585764311,-0.0036682039499282,0.0042886114679276,0.0076785362325608,still,queen
1772702279637824800,5.95082470703125,0.0497299533307552,-0.0672746609774883,-0.0566422808693256,0.0123732043430209,0.0280355364084243,-0.0010244403965771,still,queen
1772702279647772700,5.960772705078125,0.0786170251190662,-0.0529276122943265,-0.0144091130347456,0.0252277515828609,0.0248519927263259,-0.003034328110516,still,queen
1772702279657720800,5.970720947265625,-0.0060655836492776,-0.0910870324505493,0.0328801874119322,0.0348992869257926,0.0003298730589449,-0.003851119428873,still,queen
1772702279667668700,5.980668701171875,0.0190887313514947,-0.1046611559658776,0.0522085225058486,0.0436640158295631,-0.0273310504853725,-0.0034258128143846,still,queen
1772702279677615900,5.990615966796875,0.0232943663477897,-0.1280527264772914,0.0113681013710331,0.0475404821336269,-0.0376112684607505,-0.0008280652109533,still,queen
1772702279687563800,6.000563720703125,0.0340817178219556,-0.1435215959643479,-0.0535184817264089,0.046353779733181,-0.0161805432289838,0.0020793075673282,still,queen
1772702279697512000,6.010511962890625,0.1105564702153205,-0.1000270207586698,-0.0761479452915256,0.0372685045003891,0.0257894434034824,-0.0006266622804105,still,queen
1772702279707459800,6.0204599609375,0.1186421615153551,-0.0167444926131749,-0.0439783812338253,0.0201473049819469,0.044267252087593,-0.0002144048921763,still,queen
1772702279717408000,6.030407958984375,0.1181938332259655,0.0414946152938064,0.0089272087416495,0.0030987011268734,0.0221696086227893,-0.0016459866892546,still,queen
1772702279727356000,6.04035595703125,0.0590858106970787,0.0718007464000722,0.0376352570015122,-0.0132597656920552,-0.0214468445628881,-0.0003096126019954,still,queen
1772702279737304000,6.050303955078125,0.0261637843042612,0.0373701123924576,0.0136775359407416,-0.0255619157105684,-0.0481588505208492,0.0028961012139916,still,queen
1772702279747252000,6.060251953125,0.0589291588306426,-0.0130238349720952,-0.0444597532762913,-0.0298368204385042,-0.0265166722238063,0.0081731546670198,still,queen
1772702279757200000,6.070199951171875,0.0975286463379859,-0.0473354594096541,-0.0907080704697873,-0.0321561098098754,0.0232423972338438,0.0032450412400066,still,queen
1772702279767146800,6.080146728515625,0.1243050095826387,-0.058385845734179,-0.0617194745357614,-0.0299741830676794,0.0574344545602798,-0.0028610543813556,still,queen
1772702279777095000,6.090094970703125,0.0889782601356506,-0.0520637848394922,0.0226633795344503,-0.0269382856786251,0.0409908816218376,-0.0036958593409508,still,queen
1772702279787042800,6.100042724609375,0.0159445881068706,-0.0441162690342869,0.0828676317682489,-0.0238642003387212,-0.0112307760864496,-0.0040479293093085,still,queen
1772702279796991000,6.109990966796875,-0.0165308635622262,-0.0150450500178383,0.0855973855257034,-0.0171220917254686,-0.0534414947032928,0.0020217853598296,still,queen
1772702279806939000,6.11993896484375,-0.0111480014801025,-0.0001409359907847,0.0173473527355061,-0.0170528497546911,-0.0535653345286846,0.0001671598292887,still,queen
1772702279816886800,6.12988671875,0.0575303979486227,0.0393074074478354,-0.0643277253719745,-0.0104595776647329,-0.0114263985306024,0.0023810500279068,still,queen
1772702279826835000,6.1398349609375,0.1115466502964496,0.0570405366390245,-0.0992504834282212,-0.0036038015969097,0.0378218442201614,0.0029594888910651,still,queen
1772702279836782800,6.149782958984375,0.1001736078888177,0.0200288800121285,-0.1021989579702727,0.0049927290529012,0.0533512458205223,0.0019422550685703,still,queen
1772702279846731000,6.15973095703125,0.0424140773594379,-0.0078179391753626,-0.0148927797822863,0.0087443245574831,0.0252184122800827,-0.0019137358758598,still,queen
1772702279856678000,6.169677978515625,-0.006661795976758,-0.0308467933046282,0.0643892097682459,0.0160100422799587,-0.0198534578084945,0.0001653977669775,still,queen
1772702279866625800,6.179625732421875,0.0008300210833549,-0.058024392010644,0.0648010374055709,0.0224570222198963,-0.0468009188771247,0.0022746212780475,still,queen
1772702279876573700,6.18957373046875,0.0300181216448545,-0.0583736712391953,0.0272178348182816,0.0231045931577682,-0.0258931256830692,0.0001361994072794,still,queen
1772702279886521900,6.19952197265625,0.074766194909811,-0.0119057564782677,-0.0061346434264065,0.0163249839097261,0.0142540270462632,-0.0009623547084629,still,queen
1772702279896469800,6.2094697265625,0.1241489422380924,0.0694703261245507,-0.0124970163527061,0.0019365954212844,0.0367489866912364,-0.005553307943046,still,queen
1772702279906418000,6.21941796875,0.1034971993535757,0.113641814211104,0.0057358585045672,-0.0038983905687928,0.0117192659527063,-0.0038068071007728,still,queen
1772702279916365800,6.22936572265625,0.0307727394044399,0.0519498030710034,-0.0297776525360415,-0.0062439059838652,-0.0318431407213211,0.0038522756658494,still,queen
1772702279926314000,6.23931396484375,0.0015928221493959,-0.0540765494340099,-0.0660630429982906,-0.0053099356591701,-0.0366823710501194,0.0082416981458663,still,queen
1772702279936262000,6.249261962890625,0.0509726468682289,-0.1063544062824454,-0.0727215236399555,0.0014126291498541,0.0037399413995444,0.0029680798761546,still,queen
1772702279946209000,6.259208984375,0.1126233396172523,-0.1102122324880678,-0.0452947199628222,0.0035269127693027,0.0463204234838485,-6.71246089041e-05,still,queen
1772702279956157000,6.269156982421875,0.0988560955494642,-0.1004336561976466,0.0241139345357893,0.0035392858553677,0.0445296764373779,-0.0052779372781515,still,queen
1772702279966105000,6.27910498046875,0.0511205309063196,-0.0625650265483884,0.07660399109649,0.0012708050198853,-0.0021323668770492,-0.0035303710028529,still,queen
1772702279976052700,6.289052734375,-0.0028968904852867,-0.0206513044930994,0.0716303902352694,-0.0054358053021132,-0.0483372621238231,0.0021553779952228,still,queen
1772702279986001000,6.2990009765625,-0.0025981997996568,0.0236685585386003,0.0101310486981237,-0.0114130042493343,-0.0503175891935825,0.0034227757714688,still,queen
1772702279995948800,6.30894873046875,0.0826911426901817,0.0634162274170899,-0.0667792786759789,-0.0137460995465517,-0.0056275352835655,0.0043503856286406,still,queen
1772702280005896700,6.318896728515625,0.1316179629445076,0.092355234888615,-0.111893710168451,-0.0165022034198045,0.0448478870093822,0.0001790761016309,still,queen
1772702280015844900,6.328844970703125,0.1091641390740871,0.0786662893545813,-0.0654644377843244,-0.0194269735366106,0.0542555898427963,-0.0007633829955011,still,queen
1772702280025792800,6.338792724609375,0.0632166268914938,0.0407920930476393,0.0090619804239511,-0.0108907427638769,0.0218044389039278,-0.0031090951524674,still,queen
1772702280035741000,6.348740966796875,0.0029103344887495,-0.020905274687591,0.0637910064130788,-0.0008836355991661,-0.0284720622003078,0.0013025337830185,still,queen
1772702280045687800,6.358687744140625,-0.0189326640069484,-0.0683975868930807,0.0513410372226266,0.008185226470232,-0.0451474450528621,0.0004900032654404,still,queen
1772702280055636000,6.368635986328125,0.0157896898061037,-0.0754639496493153,0.0150544982661958,0.0170547179877758,-0.0206814371049404,0.0012367833405733,still,queen
1772702280065583900,6.378583984375,0.0750526106357574,-0.0487397960825124,-0.0289390394375659,0.0192875117063522,0.0187147054821252,-0.0018415641970932,still,queen
1772702280075532000,6.388531982421875,0.1036398226946592,-0.0198082115823286,-0.0461326914571924,0.0231717862188816,0.0381505712866783,-0.0040422966703772,still,queen
1772702280085480000,6.39847998046875,0.0695271252125501,0.0163772735858452,-0.0083150151062145,0.0175136346369981,0.0187800712883472,-0.0020132341887801,still,queen
1772702280095428000,6.408427978515625,0.0222463185995817,0.028497914923809,0.018913100789953,0.0142568703740835,-0.0220060758292675,0.0005205613560974,still,queen
1772702280105375700,6.418375732421875,0.0259919348686933,0.0058731594998505,0.0022905637599906,0.0085800755769014,-0.0369602553546428,0.0027538882568478,still,queen
1772702280115324000,6.428323974609375,0.0490378794133663,-0.0112802107417373,-0.0258863145031733,-0.0001563830301165,-0.0128699662163853,0.0027304543182253,still,queen
1772702280125271800,6.438271728515625,0.0991664766728877,0.0143520970343262,-0.0290259368363069,-0.0020296503789722,0.0194951631128788,-0.0011905175633728,still,queen
1772702280135219000,6.448218994140625,0.0996142204403877,-0.0247391172294272,-0.0482165759260067,-0.0041577676311135,0.0323157869279384,-0.0039138020947575,still,queen
1772702280145166800,6.458166748046875,0.0659434215068817,-0.0643310270073358,-0.0230084803448058,-0.004335400648415,0.0122728357091546,0.0001730849035084,still,queen
1772702280155115000,6.468114990234375,0.0354155967742204,-0.0633937552903778,0.0238045215267455,-0.0078064673580229,-0.0108493603765964,-0.0021083769388496,still,queen
1772702280165063000,6.47806298828125,0.0197024793356657,-0.0477202255101175,0.0337205358097678,-0.0096062310039997,-0.0225219950079917,0.0034842612221837,still,queen
1772702280175010800,6.4880107421875,0.0514227287232875,-0.0229666048313025,0.0227816333359689,-0.0105830784887075,-0.0102911610156297,0.0008799559436738,still,queen
1772702280184959000,6.497958984375,0.090624273777008,0.0281798368344083,-0.0033203894378631,-0.0125136040151119,0.009142723865807,-0.0037086703814566,still,queen
1772702280194907000,6.507906982421875,0.0946586438596248,0.0700020401147659,-0.0225181372613064,-0.0182665102183818,0.0177008248865604,-0.0011490408796817,still,queen
1772702280204855000,6.51785498046875,0.0614326660841703,0.0744339946802239,-0.0101365537070145,-0.0138033172115683,0.0066010355949401,-0.0013133578468114,still,queen
1772702280214803000,6.527802978515625,0.0246183084279298,0.0555013809056254,-0.0159438928454823,-0.0089560942724347,-0.0144857848063111,0.004436180461198,still,queen
1772702280224751000,6.537751220703125,0.0258136556923389,-0.0122120961808133,-0.0360706814157776,-0.0030396161600947,-0.0094771776348352,0.0058921300806105,still,queen
1772702280234697700,6.54769775390625,0.046613867136836,-0.0211130311201792,-0.0111565090135438,0.0048384079709649,0.0039277202449738,0.0006083096377551,still,queen
1772702280244646000,6.55764599609375,0.0651724371343851,-0.0287840863378718,-0.0012716827407624,0.0147786568850278,0.0127062983810901,-0.0040405043400824,still,queen
1772702280254593800,6.56759375,0.0339040231674909,-0.0839932930636219,-0.0125396156687056,0.0197275094687938,0.0080234017223119,-0.0019608330912888,still,queen
1772702280264542000,6.5775419921875,0.0398971261024475,-0.0546278540406841,0.0246726210146094,0.0222220923751592,-0.0053214319050312,-0.001942457165569,still,queen
1772702280274489900,6.58748974609375,0.03571487198174,-0.0166063102684798,0.0268430055899429,0.0209522377699613,-0.0187092646956443,-0.0029479055665433,still,queen
1772702280284438000,6.59743798828125,0.0500853426396846,-0.0077272446676273,-0.0090568047794455,0.0129004372283816,-0.0132692251354455,0.0014391196891665,still,queen
1772702280294386000,6.607385986328125,0.0862999808371067,0.0373473251719144,-0.0160379666203923,0.0017426256090402,0.0028088765684515,-0.0016098052728921,still,queen
1772702280304333800,6.617333740234375,0.0904892492204904,0.0689740898730931,-0.0288776532227057,-0.0036979462020099,0.0112761314958333,-0.0026335243601351,still,queen
1772702280314282000,6.627281982421875,0.0755231507569551,0.0493910128331277,-0.038483400546736,-0.0070959492586553,0.004917720798403,-0.0034962142817676,still,queen
1772702280324228900,6.637228759765625,0.0556178423255682,-0.0279882049861364,-0.0553705895662307,-0.0120464991778135,-0.0031500593759119,0.0042967274785041,still,queen
1772702280334176800,6.6471767578125,0.034366379982233,-0.0732822125629056,-0.0180601874547777,-0.0084372926503419,0.0016020922921597,0.0030716797336935,still,queen
1772702280344124700,6.657124755859375,0.059652212408185,-0.0564008185299579,0.0181985159299452,-0.0041605220176279,0.0100163500756025,-0.0017268038354814,still,queen
1772702280354072800,6.66707275390625,0.0499240145981311,-0.0677813455577241,0.0340229596723103,-0.0027769329026341,0.0098694339394569,-0.0028248995076864,still,queen
1772702280364020700,6.677020751953125,0.0346598099708557,-0.075514195698942,0.0268604658981086,-0.0010807658545672,-0.0036956425756216,0.0027392427437007,still,queen
1772702280373969000,6.686968994140625,0.0412432800143957,-0.0117289865556987,0.0442240996232023,-0.0024296701885759,-0.0134976599365472,-0.0005605162587016,still,queen
1772702280383916800,6.696916748046875,0.048424715951085,0.0277917622487177,0.0028376009002124,-0.0042616589926183,-0.0153213925659656,-0.0016492165159434,still,queen
1772702280393865000,6.706864990234375,0.0581494066298007,0.0405383831480518,-0.0551616823561722,-0.0044489772990345,-0.0044022444635629,0.0056214500218629,still,queen
1772702280403812900,6.716812744140625,0.0796954680055379,0.0575127481275005,-0.0568707832624204,-0.0050077084451913,0.014228431507945,-0.001696650404483,still,queen
1772702280413763800,6.726763916015625,0.0810404528737068,0.0426536217363551,-0.045768488654145,-0.0046162665821611,0.0175750907510519,-0.0019318093545734,still,queen
1772702280423710700,6.736710693359375,0.0569476296246051,-0.0059555382703896,-0.0130672151728067,0.0019143370445817,0.0113896327093243,-0.0005387098062783,still,queen
1772702280433659000,6.746658935546875,0.0259749837338924,-0.0386972533599706,0.0216533257090719,0.0077417539432644,-0.0091609815135598,-0.0005279229953885,still,queen
1772702280443606800,6.756606689453125,0.0228366857081651,-0.0578849926731083,0.0257106519755907,0.0118819046765565,-0.0201518461108207,0.0004286845214664,still,queen
1772702280453555000,6.766554931640625,0.0310714300900697,-0.078746935109049,0.0069080806217156,0.0166160948574543,-0.0095456074923276,0.0014109923504292,still,queen
1772702280463502600,6.776502685546875,0.0605552987277507,-0.0599339062932413,-0.0124358013844932,0.0156672094017267,0.0040399758145213,-0.0030165128409862,still,queen
1772702280473450800,6.78645068359375,0.085997198498249,-0.0357441391754196,-0.0367546930410084,0.011114465072751,0.0187810864299535,-4.59249131381e-05,still,queen
1772702280483398700,6.796398681640625,0.0753746821969747,0.0115075623573618,-0.0092607075916457,0.0046682842075824,0.0157075319439172,-0.0002264874055981,still,queen
1772702280493346800,6.806346923828125,0.0783668497502803,0.0576489371612202,0.0148776872444315,-0.0074238120578229,-0.0030388887971639,0.0003984929062426,still,queen
1772702280503294700,6.816294677734375,0.0426011243641376,0.0660302504069637,0.0118710653324436,-0.0123815536499023,-0.0203723385930061,0.0013641552068293,still,queen
1772702280513242600,6.82624267578125,0.0530722494959831,0.0421164369865786,0.0032783894851294,-0.0174703914672136,-0.015494511462748,0.0029222019948065,still,queen
1772702280523189800,6.836189697265625,0.0755132138848304,0.0254491948776761,-0.0305242171366233,-0.0163984689861536,-0.0013629798777401,0.0042468579486012,still,queen
1772702280533138000,6.846137939453125,0.0695230335593223,-0.0055185191095923,-0.0387656469876412,-0.0125839971005916,0.0167418010532856,-0.0013600171077996,still,queen
1772702280543085800,6.8560859375,0.0723620563775301,-0.0488704230251256,-0.0374738581780111,-0.0042160800658166,0.0161180887371301,0.0029953164048492,still,queen
1772702280553033700,6.86603369140625,0.0322585940480232,-0.0680549977002199,0.007692357158981,0.0018672554288059,0.0041234968230128,-0.0011048323940485,still,queen
1772702280562982000,6.87598193359375,0.0211871649354696,-0.0716581047926796,0.0273942371313809,0.0075256740674376,-0.0124176628887653,-0.0003610113635659,still,queen
1772702280572929800,6.8859296875,0.0205927061736583,-0.0467975485740927,0.0259658277464797,0.0128120789304375,-0.0127516509965062,0.0014914227649569,still,queen
1772702280582877700,6.895877685546875,0.0530675733208656,-0.0164809759889147,0.0055925376188068,0.009471409022808,-0.0073004271835088,-0.0010247319005429,still,queen
1772702280592825600,6.90582568359375,0.0750672236829996,0.0293192024281481,-0.0145406099103274,0.0063322866335511,0.0029308730736374,-0.0006626076065003,still,queen
1772702280602773800,6.915773681640625,0.0873386762350797,0.0489742350260494,-0.0261266854305751,0.0011577648110687,0.0079011302441358,-0.0022783474996685,still,queen
1772702280612720600,6.925720703125,0.0650420887529849,0.0516642275952734,-0.0224409803718677,-0.0053542689420282,0.0008107107132673,0.0027780272066593,still,queen
1772702280622668800,6.935668701171875,0.0532195490121841,0.0280092363577219,-0.0130655814797908,-0.003446381073445,-0.0029528681188821,-0.0007376114372164,still,queen
1772702280632616700,6.94561669921875,0.0463356347173452,-0.0069031327352509,-0.0083444798043608,-0.0035111512988805,-0.0054378961212933,0.0032272371463477,still,queen
1772702280642564900,6.95556494140625,0.0479816483587026,-0.0262771678511286,0.0004642973246678,-0.0014195041730999,0.0005273181013762,-0.0003110389225184,still,queen
1772702280652512800,6.9655126953125,0.0506751252263784,-0.0500613955085165,0.000851159198684,-0.001019624993205,0.0066482760012149,-0.0009581558406352,still,queen
1772702280662461000,6.9754609375,0.0717740273565053,-0.0469298012182116,0.000189694477868,0.0025862948969006,0.0055920663289725,-0.0008015618659555,still,queen
1772702280672408800,6.985408935546875,0.0391541987806558,-0.040058801203873,0.0060458092280838,0.0038665113970637,-0.0039074555970728,0.0013307714834809,still,queen
1772702280682356700,6.995356689453125,0.0345160175859928,-0.0165197964622289,0.0039765001322492,-0.0001354208216071,-0.0075053856708109,0.0014516790397465,still,queen
1772702280692305000,7.005304931640625,0.0544178188860416,0.0044515702980919,-0.0074681096742511,-0.0030268495902419,-0.0045047765597701,-0.0001120693050324,still,queen
1772702280702252800,7.015252685546875,0.0785083040475845,0.0327275792496628,-0.0143722436315671,-0.0034572165459394,0.0045531671494245,0.0005433345213532,still,queen
1772702280712199700,7.02519970703125,0.0608487287163734,0.0405002522279042,-0.0150854493852413,-0.0058488049544394,0.008957483805716,-0.0023117423988878,still,queen
1772702280722147600,7.035147705078125,0.0662339288860559,0.0209259430162841,-0.0088614386126166,-0.005948141682893,0.0061355987563729,0.0010427753441035,still,queen
1772702280732095700,7.045095703125,0.0485749380767345,0.0120389498373027,-0.0008662685757924,-0.0074139297939836,-0.0036129164509475,5.24478964507e-05,still,queen
1772702280742043600,7.055043701171875,0.049471010133624,-0.0103962629474815,0.0106730260707379,-0.0049353265203535,-0.0076228384859859,0.0007928065024316,still,queen
1772702280751991800,7.06499169921875,0.0268757319658994,-0.015993404817814,-5.31689444862e-05,0.0006377720274031,-0.0066448273137211,-0.0013050334528088,still,queen
1772702280761939700,7.074939697265625,0.0472276151210069,-0.0377654067368013,-0.0222789125447976,0.00594172347337,-0.0004457873292267,-0.0006240631919354,still,queen
1772702280771887900,7.084887939453125,0.055310383811593,-0.041167337834509,-0.0305008271278813,0.0076220519840717,0.0076850582845509,-0.0007843533530831,still,queen
1772702280781835800,7.094835693359375,0.048579614251852,-0.0317022616397822,-0.0181382097106077,0.0095104994252324,0.0058512054383754,0.0002923626452684,still,queen
1772702280791784000,7.104783935546875,0.041848844692111,-0.0213562538750818,-0.0137382348857237,0.0079733105376362,-0.0011893776245415,9.91811975836e-05,still,queen
1772702280801731800,7.11473193359375,0.0530745875835418,-0.0208695412205066,-0.0043314835866243,0.0062872637063264,-0.0022770129144191,0.0008310177363455,still,queen
1772702280811678700,7.1246787109375,0.0581634351551532,-0.0093467447613948,0.0108227584309759,0.002258067484945,-0.0042931060306727,0.0033404845744371,still,queen
1772702280821626600,7.134626708984375,0.0550216299980878,0.0102023455272894,-0.0062646196317597,0.0006561758928,-0.0023516621440649,-0.0006848834455013,still,queen
1772702280831574800,7.14457470703125,0.0601081394821405,0.0123612131947651,-0.0170980016339162,-0.0069924076087772,-0.0006911954842507,0.0011575939133763,still,queen
1772702280841522700,7.154522705078125,0.0622001433253288,0.0005660843339865,-0.0097177540478529,-0.0087951011955738,0.0034540148917585,-0.0002983561716973,still,queen
1772702280851470600,7.164470703125,0.0611503420114517,-0.0098091403920436,-0.0155817450022033,-0.007591507397592,0.0018250250723212,0.0020962236449122,still,queen
1772702280861418800,7.174418701171875,0.0481295323967933,-0.0194626472643809,-0.0116720915695768,-0.0070373034104704,0.0013491180725395,0.0008237655274569,still,queen
1772702280871366700,7.18436669921875,0.0437877038002014,-0.0325103174865012,-0.004552505640751,-0.0039305579848587,0.0018962293397635,-0.0005582170560956,still,queen
1772702280881314800,7.194314697265625,0.0645861616790294,-0.0329589015042176,0.0060974589293968,-0.0032493215985596,0.0001436029560863,-0.0005137422122061,still,queen
1772702280891262700,7.2042626953125,0.043337037423253,-0.0179789274956681,0.0149612327754613,-0.0011433218605816,-0.0004983684048056,-0.000955194234848,still,queen
1772702280901209900,7.2142099609375,0.0482750783473253,-5.37554642534e-05,0.0056571466955705,-0.001096982974559,-0.0032717841677367,5.57415187358e-05,still,queen
1772702280911157800,7.22415771484375,0.0360053793609142,0.0141298896679887,-0.000595155735666,0.0028578392229974,-0.0044727204367518,-1.8826685845e-06,still,queen
1772702280921106000,7.23410595703125,0.0553092147678136,0.0203881828777724,-0.0173884941717144,0.0030959257856011,0.000242406502366,-0.0010298627894371,still,queen
1772702280931053600,7.244053466796875,0.066382981967926,0.0134740081586991,-0.0272231959799886,0.0016308086924254,0.0029867279808968,-0.000635048141703,still,queen
1772702280941001700,7.254001708984375,0.0689274057537317,0.0033099442486069,-0.0165863200765103,0.0013245451264083,0.0065926481038331,-0.0015732799656689,still,queen
1772702280950949600,7.26394970703125,0.0644394466847181,-0.009337223447801,-0.0073403482588706,0.0030623294878751,0.0032192412763834,-0.0007717655971646,still,queen
1772702280960897800,7.273897705078125,0.0440899016171693,-0.0146871673577232,0.0021704319535725,0.0031065379735082,0.0002729864791035,-0.0003451271913945,still,queen
1772702280970845700,7.283845703125,0.0535182396978139,-0.0263058961886912,0.0136518934677646,0.0068415496498346,-0.0046885018236935,0.0007290230132639,still,queen
