time,seconds_elapsed,accel_z,accel_y,accel_x,gyro_x,gyro_y,gyro_z,activity,member
1772702327775358700,0.085358642578125,-0.0015928221493959,0.0444311254034284,0.0177566584805375,0.1390870809555053,0.0103798182681202,0.0053890068084001,still,queen
1772702327785306600,0.095306640625,0.0640630145877599,0.046140701233712,0.0035912043088232,0.1414146870374679,0.0236245170235633,0.0066968854516744,still,queen
1772702327795254800,0.1052548828125,0.0768757344096899,0.0267909032266587,0.0193952103346469,0.1342736929655075,0.0170254707336425,0.0090215587988495,still,queen
1772702327805201400,0.115201416015625,0.0525543631017208,0.0085909419750096,0.0334977347883861,0.1325690448284149,0.0025731828063726,0.009352758526802,still,queen
1772702327815149600,0.125149658203125,0.0552963552862405,-0.0100974329812452,0.0206139087918913,0.118251621723175,0.0089450618252158,0.0064278091304004,still,queen
1772702327825097500,0.135097412109375,0.0916886881381273,-0.0272718437275732,-0.0037997804420301,0.0930641219019889,0.0192431006580591,0.0002893349155783,still,queen
1772702327835045600,0.145045654296875,0.1141506953150034,-0.0308233644799795,-0.0118253401943074,0.0580361001193523,0.013780690729618,-0.0059288796037435,still,queen
1772702327844992500,0.154992431640625,0.125378776293993,-0.0448535977323539,0.0178363132877391,0.0119472444057464,-0.0025271531194448,-0.0027352632023394,still,queen
1772702327854940700,0.164940673828125,0.1348036072432994,-0.0592042311786673,0.0430271449235966,-0.0360623598098754,-0.008026847615838,0.0010320446453988,still,queen
1772702327864888600,0.174888671875,0.1518529417216777,-0.0606111023019067,0.0354024221988162,-0.065068319439888,-0.0086714578792452,0.0030452827922999,still,queen
1772702327874835500,0.18483544921875,0.1063449900001287,-0.0400540884961374,0.0079768172482145,-0.0858447030186653,-0.0097199436277151,0.0014854692853987,still,queen
1772702327884783600,0.19478369140625,0.0778846191912889,-0.0237557276486884,0.016782762813929,-0.0977443233132362,-0.0148220332339406,-0.000230242498219,still,queen
1772702327894731500,0.2047314453125,0.0631798020124435,-0.0161648158619645,0.0228909731786698,-0.0977371335029602,-0.0107362112030386,-0.0012638152111321,still,queen
1772702327904679400,0.214679443359375,0.0510094717472791,-0.0192709103848319,0.0235660982445464,-0.0982410311698913,-0.0106961904093623,-0.0009257309138774,still,queen
1772702327914626600,0.22462646484375,0.0512508792877197,-0.0230200977173633,0.0325009263203595,-0.0944273844361305,-0.0062574995681643,0.0029302597977221,still,queen
1772702327924574700,0.23457470703125,0.0471498737096786,-0.0248016473718918,0.0213468444426311,-0.0854836627840995,-0.009487722069025,0.0027522314339876,still,queen
1772702327934522600,0.244522705078125,0.011328034222126,-0.0325131624641362,0.0225467674174578,-0.068757951259613,-0.006004573777318,0.000205717049539,still,queen
1772702327944469800,0.2544697265625,0.0204050746470689,-0.0195319816069677,0.0109849860882502,-0.0521846376359462,-0.0056411153636872,0.0020074229687452,still,queen
1772702327954417700,0.264417724609375,0.022314707660675,-0.0083745181787759,0.0074494323732447,-0.0279527995735406,0.0018578139133751,0.0039147790521383,still,queen
1772702327964365800,0.27436572265625,0.0148187989473342,0.0091931958842091,0.0167668277425691,-0.004089736379683,0.0017630492802709,-0.0015685984399169,still,queen
1772702327974313500,0.2843134765625,0.0073445175439119,0.0240901107022073,0.0299899047639453,0.0194771084934473,-6.86729326844e-05,0.0006325040012598,still,queen
1772702327984260600,0.294260498046875,-0.0041506899386644,0.0370926448746584,0.016731904842949,0.038779366761446,0.0004660109989345,0.0021904148161411,still,queen
1772702327994208500,0.30420849609375,0.018185645031929,0.0236277356211561,0.0120840562042198,0.0542960092425346,0.0058003226295113,-0.0007752813398838,still,queen
1772702328004156700,0.31415673828125,0.0266138661593198,0.0176184076371835,8.3333185187e-05,0.0617170147597789,0.0087404018267989,-0.0011030258610844,still,queen
1772702328014103600,0.324103515625,0.0332470205634832,0.0064383076854981,0.0008523059803992,0.0681908950209617,0.0072612818330526,-0.0015355232171714,still,queen
1772702328024051700,0.3340517578125,0.0364367565155029,0.0057639155552722,0.0126351119324332,0.0713966116309166,0.0086525790393352,-0.005213426426053,still,queen
1772702328033999600,0.34399951171875,0.057727381825447,-0.0091215371537953,0.0242334783953847,0.0690018981695175,0.0072035528719425,-0.0081602139398455,still,queen
1772702328043946500,0.353946533203125,0.0451940634667873,-0.014562335401657,0.041587353344867,0.0598520748317241,0.007012072019279,-0.0056786807253956,still,queen
1772702328053894400,0.363894287109375,0.0733534055024385,-0.0118910201334394,0.0388066731177736,0.0533467717468738,0.005124423187226,-0.0025760980788618,still,queen
1772702328063842600,0.373842529296875,0.0717272656053304,-0.0156438424614723,0.0315710867078974,0.0420929417014122,0.0051404703408479,0.000859938096255,still,queen
1772702328073790500,0.38379052734375,0.0781751265704631,-0.0085721961753442,0.0201502368028974,0.0250846594572067,0.0003750096075236,0.0023433188907802,still,queen
1772702328083737600,0.393737548828125,0.0940431423097848,-0.0084102995949215,0.0045518249353277,0.0113724591210484,0.0015026985201984,0.0011289119720458,still,queen
1772702328093685500,0.403685546875,0.0889566328257322,-0.0067704896487761,0.004887135004031,-0.0046547101810574,0.0003828392364084,0.0001336885616183,still,queen
1772702328103633700,0.413633544921875,0.0817693516701459,-0.0210334219787502,0.0149451641317165,-0.0196295510977506,-0.0047877551987767,-0.0005968420300632,still,queen
1772702328113580800,0.423580810546875,0.0750257226288318,-0.0273811653039651,0.0264199921216117,-0.0297120120376348,-0.0022881124168634,0.0014719013124704,still,queen
1772702328123528700,0.43352880859375,0.0721685796320438,-0.043228572080098,0.0331711971146054,-0.0378383062779903,-0.0053246249444782,9.20719467103e-05,still,queen
1772702328133476600,0.4434765625,0.056737201744318,-0.0415522226659813,0.0353695839417167,-0.0441465340554714,-0.0084016416221857,1.93673186004e-05,still,queen
1772702328143424500,0.453424560546875,0.0615028087109327,-0.0243508622639346,0.0166339015283039,-0.0465506054461002,-0.00628247205168,-0.001872296212241,still,queen
1772702328153371600,0.46337158203125,0.0649187546342611,-0.020220557526173,0.002483108352893,-0.049619898200035,-0.0045293122529983,-0.0033277138136327,still,queen
1772702328163319600,0.473319580078125,0.0475315665036439,-0.0104727645330829,0.0008131521469447,-0.050037782639265,-0.0045302845537662,-0.0042609050869941,still,queen
1772702328173267700,0.483267822265625,0.0527390720188617,-0.000578891299921,0.0147220331751275,-0.0478350818157196,-0.0062221912667155,-0.0022414303384721,still,queen
1772702328183214600,0.493214599609375,0.0607885229617357,0.0019399916192516,0.02108589880137,-0.0426100417971611,-0.004011467564851,-0.0013800312299281,still,queen
1772702328193162800,0.503162841796875,0.0511854128360748,0.0020322456131223,0.0281237044666893,-0.0333193391561508,-0.0021533798426389,0.0034323004074394,still,queen
1772702328203110700,0.513110595703125,0.0394920524328947,0.0014395495501346,0.0288106957835843,-0.0251537449657917,-0.0010548220016062,0.0057749198749661,still,queen
1772702328213058800,0.523058837890625,0.0330418533802032,-0.005804220166197,0.0250647073384257,-0.0161245632916688,-0.0010984982363879,2.64863483607e-05,still,queen
1772702328223005400,0.53300537109375,0.0237543850749731,-0.0096647954513318,0.01650297547488,-0.0083145014941692,-0.0026342999190092,-0.0015028954949229,still,queen
1772702328232953600,0.54295361328125,0.037370822495222,-0.0130531044490635,0.0065486818579491,0.0030697123147547,0.0016182358376681,-0.0009532188996672,still,queen
1772702328242901500,0.552901611328125,0.0382762469023466,-0.006810310202511,0.0108490459329914,0.0171154178678989,0.0042331311851739,-0.0010082693770527,still,queen
1772702328252848600,0.5628486328125,0.0396364293396472,-0.007540889499383,0.0122771904564113,0.0191703122109174,0.0046057072468101,-0.000793884973973,still,queen
1772702328262796500,0.572796630859375,0.0465367102473974,0.007915444733086,0.0143497224141494,0.0215489324182271,-0.0003112000413239,-0.0006262292154133,still,queen
1772702328272744700,0.58274462890625,0.0419172337532043,0.006979282694403,0.0226672451421036,0.0287884697318077,0.0041708997450768,-0.0033074999228119,still,queen
1772702328282692600,0.592692626953125,0.0491202969998121,0.0033281991412164,0.019359406085615,0.0261851157993078,0.003850323613733,-1.92685984075e-05,still,queen
1772702328292639500,0.602639404296875,0.057667760592699,-0.000153459828929,0.0187371003356529,0.022456957027316,0.0032231491059064,-0.002339148428291,still,queen
1772702328302587400,0.61258740234375,0.0572334608286619,-0.0091193680295953,0.0228588336078915,0.0189531091600656,-0.0001254053786396,0.0001563928090035,still,queen
1772702328312535600,0.62253564453125,0.0567950694113969,-0.0092727821927517,0.0246787767607602,0.0136781865730881,-0.0012665702961385,-0.0016138101927936,still,queen
1772702328322482700,0.632482666015625,0.0591957008123397,-0.0151125896955607,0.0336219342735013,0.0045400452800095,-0.0020188624039292,-0.0001898081973195,still,queen
1772702328332430600,0.6424306640625,0.0602449176043272,-0.0195480285594705,0.0226881623492576,-0.0003572413697838,-0.0028172777965664,-0.0010883589275181,still,queen
1772702328342378500,0.65237841796875,0.0669774407297372,-0.0263527492714114,0.0051404658777057,-0.0078640021383762,-0.0010760533623397,0.0004788204096257,still,queen
1772702328352325600,0.66232568359375,0.0879202755153179,-0.0251427661268739,-0.0030705688350484,-0.0128584951162338,0.0001095859333872,0.0008953385986387,still,queen
1772702328362273800,0.672273681640625,0.0780371794044971,-0.0071401769111165,0.0015358929139445,0.0476851277053356,-0.1204659193754196,0.0099001424387097,still,queen
1772702328372221700,0.6822216796875,0.139554601162672,-0.0489835965094389,0.0691087445368524,0.0909316688776016,-0.0464580059051513,0.0143622690811753,still,queen
1772702328382169600,0.692169677734375,-0.4119581683695316,0.1234590328783262,0.0313327821567072,0.126529186964035,0.0469645373523235,0.0001821252517402,still,queen
1772702328392116500,0.702116455078125,0.3404822471767664,0.069580097508803,-0.103202746451646,0.1705773472785949,-0.0089056529104709,-0.0120649542659521,still,queen
1772702328402064600,0.712064697265625,-0.2703010419696569,0.0892056117512751,0.1081266949182841,0.185440331697464,0.0265837740153074,-0.0104993199929595,still,queen
1772702328412012500,0.722012451171875,0.1063531733065843,0.0276657795151812,0.0174160557487863,0.1312260925769806,0.0191327817738056,0.0042095854878425,still,queen
1772702328421959700,0.731959716796875,0.165457688704133,-0.0718136195813771,0.0539159703111275,-0.0054064062424004,0.0152075048536062,0.006652164272964,still,queen
1772702328431907600,0.741907470703125,0.3224363028764724,-0.1355285879164468,-0.0034275632958859,-0.0808391124010086,0.0182605534791946,0.0043932711705565,still,queen
1772702328441855700,0.751855712890625,0.2579495099186897,-0.0791749147301539,-0.0473530041994992,-0.0766031295061111,0.026957482099533,0.0115833710879087,still,queen
1772702328451803600,0.7618037109375,-0.0389274042874574,-0.0093115741249581,-0.0003136576426099,-0.0501262433826923,0.0403917953372001,0.0145322885364294,still,queen
1772702328461750000,0.77175,0.0441243884086608,-0.0100301170658087,0.0148836340696725,-0.0392981246113777,0.0481560379266738,0.0173414051532745,still,queen
1772702328471698000,0.781697998046875,0.0804839880347251,-0.0114376286515092,0.0410259474692866,-0.0505366623401641,-0.0002442537806928,0.0087883966043591,still,queen
1772702328481646000,0.79164599609375,0.0131306997299194,-0.0243895845558377,0.0773790625556372,-0.0648409724235534,-0.0661576613783836,-0.0051826569251716,still,queen
1772702328491594000,0.801593994140625,0.050810149782896,-0.0169396772585576,0.058098361429153,-0.0799789130687713,-0.0351097285747528,-0.0128770619630813,still,queen
1772702328501541000,0.811541015625,0.1043517703562974,-0.0301532489493605,-0.049353763262392,-0.0872517228126525,0.0230645723640918,-0.0113982930779457,still,queen
1772702328511489000,0.821489013671875,0.1620791521817445,-0.0231400480023352,-0.0537522174170473,-0.0900104939937591,0.0066832033917307,-0.0058330851607024,still,queen
1772702328521437000,0.83143701171875,0.0450146152466535,-0.0186701862790156,0.0215879620054154,-0.0909236147999763,-0.0249266121536493,-0.0026859568897634,still,queen
1772702328531384000,0.841384033203125,-0.0072644380450248,-0.0112939401562791,0.0440438476854702,-0.0812989473342895,-0.0221646465361118,0.0024837711825966,still,queen
1772702328541332000,0.85133203125,0.0740840578645467,-0.0149066918599186,0.032328015155578,-0.0719756335020065,0.0032391438726335,0.00919228233397,still,queen
1772702328551280000,0.861280029296875,0.0622170944601297,-0.0180357060340698,0.0250218522940995,-0.0591192245483398,0.0063121654093265,0.0052129877731204,still,queen
1772702328561227000,0.87122705078125,0.0261170225530862,-0.0111801045182626,0.0240189885446219,-0.0374912917613983,-0.0049440972506999,0.0028924173675477,still,queen
1772702328571175200,0.881175048828125,0.0055944590061902,-0.0003055496846791,0.0218923083969857,-0.0130935395136475,-0.0096552288159728,-0.0004216199740767,still,queen
1772702328581123000,0.891123046875,0.0014016834914684,0.0197426469492726,0.0038013536278973,0.0106803569942712,-0.0009004566818475,-0.0016152423340827,still,queen
1772702328591071200,0.9010712890625,0.0424216761440038,0.0197765309525653,-0.0050086630414472,0.0304988026618957,0.0084754675626754,-0.0003553009591996,still,queen
1772702328601017900,0.911017822265625,0.0322772987484931,0.0189840014685411,0.0036026253185584,0.0422731190919876,0.0054582529701292,-0.0003435183316469,still,queen
1772702328610966000,0.920966064453125,0.0261807354390621,0.013932882958278,0.0184165768441278,0.0553047657012939,0.0047402647323906,0.0025555989705026,still,queen
1772702328620914000,0.930913818359375,0.0449257679194211,0.0047405364574398,0.0248807838725741,0.0588137432932853,0.0013826105277985,0.0007916069589555,still,queen
1772702328630861000,0.940861083984375,0.0575368276894092,0.007578230401664,0.0305492602463345,0.0583399645984172,0.0075907055288553,0.0018608663231134,still,queen
1772702328640809000,0.95080908203125,0.071489365196228,0.0090625506752869,0.0198636863629217,0.0570307970046997,0.0081918761134147,-0.0018898469861596,still,queen
1772702328650757000,0.960757080078125,0.0595493365556001,-0.0082783323618816,0.008330873116583,0.0534187518060207,0.0042487997561693,-0.00239052134566,still,queen
1772702328660705000,0.970705078125,0.0712444505244493,-0.0120536313832039,0.0030887826284626,0.0431748367846012,0.0020058250520378,-0.0012359630782157,still,queen
1772702328670652000,0.98065185546875,0.0865256062865257,-0.0177602363938232,0.0024457058018189,0.0341752171516418,0.0098110176622867,-0.0041151065379381,still,queen
1772702328680599800,0.990599853515625,0.0892313581138849,-0.0168767589570255,0.018648702816281,0.0214465148746967,-0.0001973034814,0.0012154700234532,still,queen
1772702328690548000,1.0005478515625,0.0763683694094419,-0.0117100877756951,0.0297444832020904,0.007355464156717,-0.0031422269530594,3.4654513001e-06,still,queen
1772702328700496000,1.010495849609375,0.0811567727297544,-0.0092528856156161,0.0371825881804339,-0.0062783933244645,-0.0028847609646618,-0.0008963388390839,still,queen
1772702328710443000,1.020443115234375,0.0810018744289875,-0.0129570921621052,0.0288213724412256,-0.0168522074818611,-0.003291159402579,-0.0016979502979665,still,queen
1772702328720391000,1.030390869140625,0.0799444743305444,-0.0177936546062352,0.0208876659656641,-0.0257162004709243,-0.001869520638138,-0.0003607058897614,still,queen
1772702328730339000,1.040339111328125,0.0763391433149576,-0.0158489822452887,0.0126854538801824,-0.0352471210062503,-0.0031518330797553,0.0019828756339848,still,queen
1772702328740286200,1.0502861328125,0.0760211634069681,-0.0249867033489048,0.0119437230016337,-0.0386124774813652,-0.0042599495500326,-0.0001165391877293,still,queen
1772702328750234000,1.060234130859375,0.0683674337834119,-0.0128210766583215,0.019697271154297,-0.0434977784752845,-0.004948110319674,0.0017111883498728,still,queen
1772702328760182000,1.07018212890625,0.0692412940084934,-0.0174093223306117,0.023604482609732,-0.0419123284518718,-0.0049618971534073,0.0015507880598306,still,queen
1772702328770130000,1.0801298828125,0.0550017562538385,-0.0129998809910612,0.024810422050103,-0.0368515253067016,-0.0069555393420159,0.0001736674457788,still,queen
1772702328780077000,1.0900771484375,0.0515378795355558,-0.0072018394039012,0.0278777349155629,-0.0313869044184684,-0.0038470728322863,-0.0003185300156474,still,queen
1772702328790025000,1.10002490234375,0.0414934553831815,-0.0056970197649439,0.0210470851779216,-0.0232765134423971,-0.004453208297491,0.0023006885312497,still,queen
1772702328799973000,1.10997314453125,0.0506084897309541,-0.0104302770982263,0.0120604241668828,-0.0147242667153477,-0.0041401321068406,-0.0012765668798238,still,queen
1772702328809920000,1.119919921875,0.0384808295637369,-0.0021345963093219,0.0148083551851334,-0.0041821440681815,-0.0011696419678628,-0.0008283569477498,still,queen
1772702328819868200,1.1298681640625,0.0365349561929702,0.0093018530236091,0.0107636669211904,0.0029695420525968,0.0018340444657951,-0.0012288764119148,still,queen
1772702328829816000,1.139816162109375,0.0443213722854852,0.0164287457614671,0.0115199332151678,0.0113238785415887,0.0012350995093584,0.0008728899993002,still,queen
1772702328839764200,1.14976416015625,0.0362526321202516,0.0005290836417116,0.0180143755516735,0.0201174542307853,0.0018383122514933,-0.0015811086632311,still,queen
1772702328849710800,1.1597109375,0.0557213027000427,-0.0108301037705037,0.0139152285705786,0.0287255886942148,0.0003045978955924,0.0009382418356835,still,queen
1772702328859659000,1.169658935546875,0.0578343493312597,-0.0016202490124385,0.0146785913256229,0.0309052374213933,0.0038001765497028,0.0009135981090366,still,queen
1772702328869607000,1.17960693359375,0.0626426263958215,-0.0021887467825086,0.0167350078321993,0.0292695239186286,0.0014944118447601,-0.0025647566653788,still,queen
1772702328879555000,1.18955517578125,0.0629600217819213,-0.0020628599470946,0.0142441956634633,0.0310652628540992,0.00156667875126,-0.0003516878932714,still,queen
1772702328889502000,1.199501953125,0.0607324088603258,0.0003395021866308,0.0137171669815201,0.0306676551699638,0.0034841545857489,-0.0007879135664552,still,queen
1772702328899450000,1.2094501953125,0.0686766458630561,-0.0116273231293773,0.0119461113215424,0.0204875469207763,0.0042295851744711,0.0018146345391869,still,queen
1772702328909398000,1.21939794921875,0.0782628048539161,-0.0077631585145136,0.0111820224807132,0.0133774392306804,0.0022937334142625,0.0006628171540796,still,queen
1772702328919345200,1.22934521484375,0.0800637167960405,-0.0031380285976687,0.017934869158233,0.0066975993104279,-0.0014469372108578,0.0005855942144989,still,queen
1772702328929292800,1.239292724609375,0.075128013959527,-0.0140361241370439,0.0256927395762759,0.0011030966416001,7.15968199074e-05,-0.0004043029621243,still,queen
1772702328939241000,1.249240966796875,0.0712368517398834,-0.0093922803865745,0.0201903701671748,-0.0061834156513214,-0.0022828513756394,0.0015948433429002,still,queen
1772702328949188900,1.25918896484375,0.0646475364774465,-0.0112158516850788,0.0160979497543885,-0.0140631757676601,-0.004145199432969,0.0004835063591599,still,queen
1772702328959136000,1.269135986328125,0.1378209092378616,-0.0206871247251518,0.0193909474347718,0.1398623883724212,-0.1564426124095916,0.0380551591515541,still,queen
1772702328969084000,1.279083984375,-0.5545078596949577,0.0050003016384784,0.1926677489246241,0.1942787617444992,0.0262161418795585,0.0357485935091972,still,queen
1772702328979032000,1.289031982421875,0.4211941987484693,0.0902146243970375,-0.1688188904992304,0.1962542235851287,0.1190480217337608,0.0069180941209197,still,queen
1772702328988979200,1.298979248046875,-0.0160392806529998,0.0441695427246391,-0.0796349425904918,0.0948226749897003,-0.0395629294216632,-0.017822939902544,still,queen
1772702328998927000,1.308927001953125,0.0544376926302909,-0.0582348061911994,0.1444542097724974,-0.0966852158308029,0.0330784544348716,-0.0006338483653962,still,queen
1772702329008875000,1.318875,0.6055576634526253,-0.1907837800752371,-0.0318999624692369,-0.1760575324296951,-0.0183919258415699,-0.0045217974111437,still,queen
1772702329018823000,1.328822998046875,0.1307154611468315,-0.0460927567390259,0.0751284888835623,-0.1730261445045471,-0.0700202286243438,-0.0070458441041409,still,queen
1772702329028770000,1.33877001953125,-0.1551549058765172,0.0190057657757773,0.0588733369901776,-0.1388146430253982,-0.0088956216350197,-0.0082386741414666,still,queen
1772702329038718000,1.348718017578125,0.1201262625932693,0.0214666029313579,-0.0406682018064893,-0.0757975801825523,-0.0204257927834987,0.0003823968581855,still,queen
1772702329048666000,1.358666015625,-0.0926882205694913,0.0411403858955018,0.0528173979520797,-0.007156731095165,-0.0173964463174343,0.0037451698444783,still,queen
1772702329058614000,1.368614013671875,-0.1706388907343149,0.0507152608739445,0.0312295021620346,0.0483165681362152,0.0210224874317646,0.0007134526968002,still,queen
1772702329068561200,1.37856103515625,0.1517272695153951,-0.0135992625231621,-0.0495922162273433,0.0512913204729557,0.1087054684758186,-0.0017582268919795,still,queen
1772702329078509000,1.388509033203125,0.132169167086482,-0.0024738062350079,-0.072450081720855,0.0472246818244457,0.0597890429198741,-0.00026191258803,still,queen
1772702329088457200,1.398457275390625,0.0029027357041835,-0.0234877494784421,0.0513912239067489,0.0431170240044593,-0.0331329070031642,-0.0001897411420941,still,queen
1772702329098403800,1.40840380859375,-0.0283662627846002,-0.0278191251796786,0.105506036691647,0.0331839732825756,-0.0463563166558742,-0.0003784080035984,still,queen
1772702329108352000,1.41835205078125,0.0515460628420114,-0.0095161853274563,0.0334244343734462,0.0201949384063482,0.0273123085498809,0.0005494370125234,still,queen
1772702329118300000,1.4282998046875,0.2237900506854057,0.00510251533736,-0.0463503208298236,0.0037715267390012,0.0311229135841131,-0.0002264389768242,still,queen
1772702329128248000,1.438248046875,0.0648743309706449,0.0039901998640387,0.0188297036726842,-0.0117610935121774,-0.0184994991868734,-0.000588362570852,still,queen
1772702329138195000,1.44819482421875,0.0117424602419137,-0.0019839951577596,0.0637172927228966,-0.0220799427479505,-0.0263028796762228,0.0003478275611996,still,queen
1772702329148143000,1.45814306640625,0.1061532668203115,-0.0053027026681345,0.0123354782485985,-0.0326156727969646,0.0132011184468865,0.0032639889977872,still,queen
1772702329158091000,1.468091064453125,0.1167664307713508,-0.0094590483127394,-0.0200328734839451,-0.0388437882065773,0.0072940895333886,0.0001706737093627,still,queen
1772702329168039200,1.4780390625,0.0628793577611446,-0.0229450734195066,0.0173866264416137,-0.038709033280611,-0.0173803642392158,0.0004178150556981,still,queen
1772702329177985800,1.48798583984375,0.0145247844368219,-0.0295288357239915,0.040651972190896,-0.0372234843671321,-0.012638185173273,-0.0001918799243867,still,queen
1772702329187934000,1.497933837890625,0.0722650257438421,-0.0310099776598392,0.0089511353232199,-0.0420760288834571,0.0045317471958696,0.0002257036976516,still,queen
1772702329197881900,1.5078818359375,0.0794283415019512,-0.0245679482138715,-0.0016421503169927,-0.0343968980014324,-0.0027530267834663,0.0016817161813378,still,queen
1772702329207829000,1.5178291015625,0.0289800107687711,-0.0114296268664998,0.0263015625068685,-0.0317973867058754,-0.0105132116004824,0.001434308476746,still,queen
1772702329217777000,1.52777685546875,0.0593383241534233,0.0084623471592785,0.0229934540223213,-0.0259173549711704,-0.0046154875308275,0.0016885423101484,still,queen
1772702329227725000,1.53772509765625,0.0418161114662885,0.0203926626900676,0.0094368684469722,-0.0228752270340919,0.0011260216124355,-0.001715776277706,still,queen
1772702329237673000,1.5476728515625,0.0479413163483142,0.0188210248925955,0.002050511922175,-0.0124581046402454,-0.0001610778272151,0.0021889596246182,still,queen
1772702329247620000,1.5576201171875,0.0374625924319028,0.0151012326179072,0.0202204159622779,-0.0020821620710194,-0.003279373049736,-0.0012174898292869,still,queen
1772702329257568000,1.567568115234375,0.0226508077472448,7.14578010141e-05,0.0179882889790576,0.0076776053756475,0.0006512124091386,0.0009982152841985,still,queen
1772702329267516200,1.57751611328125,0.0410650008380413,-0.0061942241307813,0.0115600825624656,0.0169331543147563,0.002476543188095,-0.0003450829535722,still,queen
1772702329277463800,1.5874638671875,0.0383849679738283,-0.0185483088984386,0.0179442374914884,0.0260782483965158,0.0022577389609068,-0.0016486111562699,still,queen
1772702329287411000,1.597410888671875,0.0458820457309484,-0.0156154794500907,0.0245351556225446,0.0272926501929759,0.0019506763201206,-0.0012525990605354,still,queen
1772702329297359000,1.607359130859375,0.052932548764348,-0.0015877441154792,0.0160175231956294,0.0287754498422145,0.003955434076488,0.0011711111292243,still,queen
1772702329307307000,1.61730712890625,0.0533984127104282,-7.40653166314e-05,0.0055439503783709,0.029343768954277,0.0048989923670887,-0.0004978920333087,still,queen
1772702329317255000,1.6272548828125,0.0739139619946479,0.0070215098343556,0.0108168218805338,0.028751503676176,0.003267656546086,0.0024218438193202,still,queen
1772702329327202000,1.6372021484375,0.0556710338175296,0.0181871885350439,0.017299473314546,0.0237495526671409,0.0018516539130359,-0.0004860619083046,still,queen
1772702329337150200,1.647150146484375,0.0633124884814023,0.0187764642316615,0.017023033276631,0.0161978472024202,0.0030361383687704,0.0005625407211482,still,queen
1772702329347098000,1.65709814453125,0.0749912358373403,0.0068105659308377,0.0218207158819423,0.0115951057523489,0.0027104339096695,0.0017298045568168,still,queen
1772702329357045000,1.667044921875,0.0728998165160417,-0.0147255540061974,0.0144019937407923,0.0057361875660717,0.0003715334460139,-0.0014210797380656,still,queen
1772702329366993000,1.676992919921875,0.0703577308177948,-0.0266724873116472,0.0113090463938657,0.0008743209764361,-0.0026924330741167,0.0025563514791429,still,queen
1772702329376941000,1.686941162109375,0.0621264935672283,-0.0378138535549864,0.0064851036860025,-0.0057814749889075,-0.0006619412451982,-0.0012362725101411,still,queen
1772702329386889000,1.696888916015625,0.058831543675065,-0.0348938881547888,0.0117849134274409,-0.0110156517475843,-0.0009863143786787,-0.0014179002027958,still,queen
1772702329396836000,1.706836181640625,0.0715443102538585,-0.0229232314804568,0.0237901436582324,-0.0160434059798717,-0.0035998201929032,0.0014131544157862,still,queen
1772702329406784000,1.716783935546875,0.0740799662113189,-0.0105028902432881,0.0205255911876214,-0.0182093549519777,-0.0022240309044718,-0.0013613267801702,still,queen
1772702329416732200,1.726732177734375,0.0668880088806152,-0.0053238619038835,0.0205524175457539,-0.0205774791538715,-0.0007996126078069,-0.0006856827531009,still,queen
1772702329426680000,1.73668017578125,0.0619394465625286,0.0008418804845074,0.0182630530831171,-0.019454687833786,-0.0039546592161059,0.0023101069964468,still,queen
1772702329436627000,1.746626953125,0.0568412466406822,-0.0013372399531304,0.0169341905159759,-0.0188835803419351,-0.0028035254217684,0.0003783553838729,still,queen
1772702329446574800,1.756574951171875,0.0593733954668045,-0.0078490969320293,0.011285332158138,-0.0210204999893903,0.0004806844517588,0.0002425340935587,still,queen
1772702329456523500,1.7665234375,0.0503852023690938,-0.0023755334923043,0.0144106930704787,-0.0156870149075984,-0.0018066088669002,0.0010015182197093,still,queen
1772702329466470400,1.776470458984375,0.0481324550062417,-0.0104153443905757,0.0203139348980505,-0.0117958709597587,-0.0020769196562469,-0.0002821255475282,still,queen
1772702329476418600,1.78641845703125,0.047678866019845,-0.0181131049521034,0.0159335301400278,-0.0070049264468252,0.0009766342118382,0.0006241924129426,still,queen
1772702329486366500,1.796366455078125,0.0466302337497472,-0.0178658384930342,0.0201888175309053,0.0013038697652518,0.0009324257262051,-0.0008288284298032,still,queen
1772702329496314600,1.806314697265625,0.0470814846485853,-0.0090457411043811,0.0211332724738982,0.0056527107954025,-0.0011636945419013,0.0014768475666642,still,queen
1772702329506261500,1.816261474609375,0.0529226118922233,-0.0062634899747092,0.0193687995350454,0.0092005738988518,-0.0017703622579574,-0.0012291902676224,still,queen
1772702329516209700,1.826209716796875,0.049038463935256,0.0077218629563227,0.0146524773535435,0.0128236953169107,0.0031546915415674,-0.0008323520887643,still,queen
1772702329526157600,1.836157470703125,0.0505436078011989,0.0161470107772154,0.0129276537217781,0.0170924756675958,0.0022239168174564,-0.000761778326705,still,queen
1772702329536105700,1.846105712890625,0.0586328062325715,0.0107188893478363,0.0118682922784006,0.0153688229620456,0.0016882310155779,-0.0017337705940008,still,queen
1772702329546052400,1.85605224609375,0.0574433041870593,0.0050237738456111,0.023827895552467,0.0121602453291416,0.0014107297174632,0.0017182189039885,still,queen
1772702329556000500,1.86600048828125,0.0683738635241985,-0.0154909534547012,0.0109600000607548,0.0137961851432919,0.0009661614894866,-0.002998654730618,still,queen
1772702329565948400,1.875948486328125,0.0546142182409763,-0.0160045153002953,0.0207260639294749,0.0125450324267148,0.0034711307380348,-0.0001876885071396,still,queen
1772702329575896600,1.885896484375,0.0580623128682374,-0.0241297485928516,0.0202849645318929,0.0104767121374607,0.0020890207961201,-0.0010848802048712,still,queen
1772702329585843500,1.895843505859375,0.0636035803824663,-0.0117753167653223,0.0231691987482947,0.0070638712495565,0.0013057850301265,0.0019489927217364,still,queen
1772702329595791600,1.90579150390625,0.0671978054821491,-0.016341204475332,0.0195623447791906,0.0028999475762248,-0.0017540324479341,8.30912031233e-05,still,queen
1772702329605739500,1.915739501953125,0.0651028790295124,-0.011347798368521,0.0142947750732302,-0.0021459436975419,-0.0006493530236184,0.0005600634030997,still,queen
1772702329615686400,1.925686279296875,0.0680944620609283,0.003585918495641,0.0197409070833353,-0.0054922681301832,0.0014984293375164,-0.0005802216473966,still,queen
1772702329625634300,1.93563427734375,0.0615069003641605,0.0031489107512868,0.0134566939810058,-0.0097330855205655,-0.0030364012345671,0.0041388995014131,still,queen
1772702329635582500,1.94558251953125,0.0588075782775878,0.002356440632767,0.0200204957762733,-0.0107106324285268,-0.000961854122579,-0.0002836934290826,still,queen
1772702329645530400,1.9555302734375,0.0662836132466793,-0.006005848252098,0.0210013828726718,-0.0130901671946048,-0.0018441593274474,0.0015019560232758,still,queen
1772702329655477500,1.9654775390625,0.0505640660673379,-0.006806579308887,0.0107860271667595,-0.0134611101821064,0.0002244724892079,6.14104792475e-05,still,queen
1772702329665425700,1.97542578125,0.0462181458175182,-0.0187308806574204,0.0180808740497799,-0.0125340623781085,-0.0029830387793481,0.0015847384929656,still,queen
1772702329675373600,1.98537353515625,0.0459130253911018,-0.0232283975726459,0.0155920163761125,-0.0078995954245328,-0.0015425779856741,-0.0010879549663513,still,queen
1772702329685321500,1.995321533203125,0.047404725253582,-0.0097879697398515,0.0180441519187181,-0.0065035670995712,-0.0002490803599357,5.34756109118e-05,still,queen
1772702329695268600,2.0052685546875,0.0484492658704519,-0.0135023597536375,0.0220758642533677,-0.0047040088102221,-0.0010881875641644,-0.0027393123600631,still,queen
1772702329705216500,2.015216552734375,0.0502419945061206,0.0038981125502381,0.0157457250835024,-0.001196093391627,-0.0015060375444591,-0.0016418236773461,still,queen
1772702329715164400,2.025164306640625,0.0530845244556665,0.0002244655387941,0.0232349985600798,0.0023999637924134,-0.0021794652566313,0.0009223516099154,still,queen
1772702329725112300,2.0351123046875,0.0494943910092115,0.0096042198039358,0.0105999596928828,0.0013629286549985,-0.0002143187448382,-0.0023855604231357,still,queen
1772702329735059500,2.0450595703125,0.0487479565560817,0.0057334153857314,0.0082108840157045,0.0062691839411854,0.0013952674344182,0.0020261672325432,still,queen
1772702329745007600,2.055007568359375,0.0441126979708671,-0.002985130457743,0.0160509025921346,0.0069629373028874,0.0003531724214553,-0.0003195446915924,still,queen
1772702329754955500,2.06495556640625,0.0385796137630939,0.0008060785187641,0.0242096636949572,0.0058006485924124,0.0011110794730484,0.001411419827491,still,queen
1772702329764902700,2.074902587890625,0.0391834248751401,-0.0082273830593563,0.0161847398385638,0.0086206700652837,0.0004479521885514,0.0013230028562247,still,queen
1772702329774850600,2.0848505859375,0.0577443329602479,-0.0104900946937967,0.0185756581296678,0.0087378490716218,0.0024344041012227,-0.0020818267948925,still,queen
1772702329784798700,2.094798828125,0.0454793101489543,-0.0170439276508986,0.011838584410015,0.0090579614043235,0.0003139954060316,0.0008468516170978,still,queen
1772702329794746600,2.10474658203125,0.0540133297383785,-0.0088277418389916,0.0175717372175538,0.0093641523271799,0.0009328718297183,-0.0026621199212968,still,queen
1772702329804693500,2.114693603515625,0.0517722728133201,-0.0067691562082152,0.0179818980541778,0.0074943471699953,-0.0004037688486278,0.0010687024332582,still,queen
1772702329814641400,2.124641357421875,0.053570262145996,0.0083998672491637,0.011940820941783,0.0033350577577948,0.0012635244056582,-0.0003925692290067,still,queen
1772702329824589600,2.134589599609375,0.0649438890755176,-0.0090018060645321,0.0169578636525082,0.0002071750350296,-0.0002994849346578,0.0002228873781859,still,queen
1772702329834537500,2.144537353515625,0.0490817185550928,0.0016880444184876,0.015801512674638,-0.0018282742239534,-0.0016812002286314,9.94633883237e-05,still,queen
1772702329844484600,2.154484619140625,0.0549158315360546,0.0032506951919058,0.0055754483450436,-0.0037241787649691,-0.0017877267673611,0.002360753249377,still,queen
1772702329854432500,2.1644326171875,0.0632937837809324,-0.0106971615732181,0.0136607606191653,-0.0027855401858687,0.0007576076313853,0.0003294763155281,still,queen
1772702329864380700,2.174380615234375,0.0583534047693014,-0.0240606517122825,0.0179426848552189,-0.0073057236149907,0.0012249923311173,-0.000795709202066,still,queen
1772702329874328600,2.18432861328125,0.0568541061222553,-0.0142591055382275,0.0141374930191319,-0.0053529222495853,-0.0002999464049935,0.0021637957543134,still,queen
1772702329884275500,2.194275390625,0.0469745171427726,-0.0198208861175226,0.0173767786177457,-0.0059489379636943,0.0012859660200774,-0.0015542434994131,still,queen
1772702329894223400,2.204223388671875,0.0531067362874746,-0.0105829560424434,0.0182249723953194,-0.0051035666838288,-0.0035124900750815,0.0008384766988456,still,queen
1772702329904171500,2.214171630859375,0.0519072973698377,-0.0042603197590215,0.0208845858093001,-0.0058045107871294,-0.0005180318839848,-0.0006393112707883,still,queen
1772702329914118700,2.22411865234375,0.0586386514514684,-0.0005500807639677,0.0234176159848342,-0.0023864535614848,0.0005009630694985,0.0014478177763521,still,queen
1772702329924066600,2.234066650390625,0.0466653050631284,0.0009155576420715,0.0180767572803772,-0.0025827288627624,0.0008634193800389,-0.00020707026124,still,queen
1772702329934014500,2.244014404296875,0.0532493596285581,0.0054136408128775,0.0078102399260969,0.000474096275866,-0.0005543073639273,0.0001299874857068,still,queen
1772702329943962600,2.253962646484375,0.0499585013896226,0.0016369992178399,0.0225746121223201,-0.0011224686168134,-0.0006315391510725,0.0014096363447606,still,queen
1772702329953909800,2.26390966796875,0.0504074142009019,-0.0048905302542261,0.0144727528554853,0.0017488300800323,0.0002729543484747,-0.000505581498146,still,queen
1772702329963857400,2.273857421875,0.0563952564388513,-0.0072503592873224,0.0077043729654047,0.0034750911872833,0.003501504426822,-0.001225434243679,still,queen
1772702329973805300,2.283805419921875,0.0581944148153066,-0.0098725610170746,0.0166335636015865,0.0066441567614674,0.0034520267508924,-0.0024855381343513,still,queen
1772702329983753500,2.29375341796875,0.0604430705249309,-0.0071908476524287,0.0239802982187597,0.0094977337867021,-2.6258639991e-06,-0.0003408943302929,still,queen
1772702329993700600,2.30370068359375,0.0538636921346187,-0.0065530657721217,0.0149549034993746,0.0089299846440553,0.0032724174670875,0.0007287873886525,still,queen
1772702330003648500,2.3136484375,0.0480325017631053,0.0015437588432803,0.0168469620403833,0.0076175788417458,0.0029272716492414,-0.0005772267468273,still,queen
1772702330013596400,2.323596435546875,0.0649444735974073,0.0029190520847449,0.0109118729029782,0.0060701603069901,-0.0002330178394913,0.0003485269844532,still,queen
1772702330023544600,2.333544677734375,0.0622527502954006,-0.0004127957517048,0.0143293486296897,0.0032490740995854,-0.0027433135546743,0.0011043320409953,still,queen
1772702330033491700,2.34349169921875,0.0561187775850295,0.0083066725403768,0.0140302629351266,0.0020479117520153,-0.0018347366712987,-0.0011492425110191,still,queen
1772702330043439600,2.353439697265625,0.0583639261633157,-0.0027825707900803,0.0147640114366193,-0.0013452218845486,-0.0014837319031357,0.0032814587466418,still,queen
1772702330053387500,2.363387451171875,0.0600093552827835,-0.0032267663270467,0.0174930459581548,-0.0008729668334126,0.0008721938356757,-8.39200802147e-05,still,queen
1772702330063334400,2.37333447265625,0.0550707298368215,0.0004135492369532,0.0153884178121224,-0.0023116064257919,0.0006807125173509,0.0001062294468283,still,queen
1772702330073282600,2.383282470703125,0.0552191983968019,-0.0113119050712324,0.0157471978046698,-0.0021616560406982,-0.0009747915901243,-0.0002391086891293,still,queen
1772702330083230500,2.39323046875,0.0544686722904443,-0.0088826092648087,0.0180705216191243,-0.0064757107757031,-0.0024975868873298,-2.17948108911e-05,still,queen
1772702330093178600,2.4031787109375,0.0568605358630418,-1.48094100644e-05,0.0163317630768404,-0.0040215495973825,-0.0003525521606206,-0.0009217048063874,still,queen
1772702330103125500,2.41312548828125,0.0537163926184177,0.0029172071875305,0.0142368754401104,-0.0062426263466477,-0.0002697277814149,0.0008676731958985,still,queen
1772702330113073700,2.42307373046875,0.0555102902978658,-0.00154738013905,0.0161823560852324,-0.0028413091786205,-0.0030040373094379,-0.0003312109038233,still,queen
1772702330123021600,2.433021484375,0.0626905571907758,0.00562150684332,0.020706007522135,-0.0023920335806906,0.0001182528212666,-0.0002174936234951,still,queen
1772702330132969700,2.4429697265625,0.0576017096191644,0.0062848798226099,0.0175812539645703,-0.0026683248579502,0.0006304625421762,0.0003939047455787,still,queen
1772702330142916400,2.452916259765625,0.045479894670844,-0.0003644037324469,0.0266373337998753,-0.0018872199580073,0.0011867969296872,0.000761420931667,still,queen
1772702330152864500,2.462864501953125,0.0586474192798137,-0.0018507606995292,0.0158051476701395,-0.0006498526781797,-0.0011748587712645,0.0009045833721756,still,queen
1772702330162812400,2.4728125,0.0631365473926067,-0.0053009102865587,0.0196726344699622,0.0003371150232851,-0.0011689998209476,-0.0014693583361804,still,queen
1772702330172760600,2.482760498046875,0.0537099628776311,-0.0118522453258978,0.0157971584432176,0.0024012939538806,0.0008263480849564,0.0009406958706676,still,queen
1772702330182707500,2.49270751953125,0.052365562531352,-0.0081802057496504,0.0177085313227609,0.0042974646203219,0.001307847443968,0.0003401529975235,still,queen
1772702330192655600,2.502655517578125,0.0448860204309225,-0.003985165212606,0.0085847885121474,0.0039172125980257,-0.0005882852710783,-0.0014194690156728,still,queen
1772702330202603500,2.512603515625,0.0573088641524314,-0.003111711412901,0.0115875528079923,0.004780076444149,0.0031965994276106,-0.0007851042319089,still,queen
1772702330212550700,2.522550537109375,0.0552168603092432,0.0030854627267923,0.0113595344720873,0.0019000018946826,0.0018026155885308,-0.0002229362726211,still,queen
1772702330222498300,2.532498291015625,0.06299976927042,0.001305739703169,0.0143776379009592,0.0023756423033773,0.0006260308437049,-0.0001712711527943,still,queen
1772702330232446500,2.542446533203125,0.0594102203458547,0.0026450985481496,0.0175519228388089,0.0015719002112746,-0.0014547775499522,-0.0006796303205192,still,queen
1772702330242394400,2.552394287109375,0.0523772529691457,0.0021311348437564,0.0191342738265404,-0.0005772705189883,0.0010507241822779,0.0010809851810336,still,queen
1772702330252341500,2.562341552734375,0.0487859504789114,-0.0065882238504709,0.0144734035927453,-0.0011940589174628,-0.0009863055311143,-0.004397879820317,still,queen
1772702330262289400,2.572289306640625,0.0633007980436086,-0.0078110984426224,0.0173126981223002,-0.0025221770629286,-0.0034428057260811,0.0032632360234856,still,queen
1772702330272237600,2.582237548828125,0.0600070171952247,-0.0065763370498549,0.0193398451519082,-0.0005600885488092,-0.0010067103430628,-0.0002353438176214,still,queen
1772702330282185500,2.592185546875,0.0571633182018995,-0.0156696253567002,0.009659167144855,-0.004003289155662,-0.0006426558829843,-0.0018444259185343,still,queen
1772702330292132600,2.602132568359375,0.0486328057438135,-0.0112167147681815,0.0125976340328343,-0.0014279275201261,0.0007141265086829,0.000779265537858,still,queen
1772702330302080500,2.61208056640625,0.0463876571655273,-0.0071125947844469,0.0172249833062291,-0.0041307699866592,-0.0002779010683298,0.0008727423846721,still,queen
1772702330312028400,2.6220283203125,0.0540174213916063,0.001673075178219,0.0218445808147196,-0.0026461579836905,0.0002998658455908,0.0007189717143774,still,queen
1772702330321976300,2.631976318359375,0.0529682045996189,0.0039900697165867,0.0186838723110733,-0.0035993033088743,0.0007451465353369,0.0001192279160022,still,queen
1772702330331923500,2.64192333984375,0.0538648611783981,0.0007522842386038,0.0174792891441495,-0.0029470631852746,-0.0004726476036012,0.0012481901794672,still,queen
1772702330341871600,2.65187158203125,0.0531137505501508,-0.0137637506361817,0.0195158821388264,-0.0032693054527044,0.0019716017413884,-0.0020216386765241,still,queen
1772702330351819500,2.661819580078125,0.0472772994816303,-0.0093821836842456,0.0161112247944925,-0.0014402689412236,-0.0019112573936581,0.0013925563544034,still,queen
1772702330361767400,2.671767333984375,0.0499707763493061,-0.012642518920754,0.0120521312625729,0.0003469786606729,-0.0002182857133448,-0.0016849925741553,still,queen
1772702330371714600,2.681714599609375,0.0469791933178901,-0.0106918369441293,0.0125192784168641,-0.0018389672040939,-0.0026583955623209,0.0019049798138439,still,queen
1772702330381662700,2.691662841796875,0.0511696307450532,-0.0033432094806805,0.0136593563966569,0.0028521907515823,0.0019834942650049,0.0011278698220849,still,queen
1772702330391610600,2.701610595703125,0.0597001432031393,-0.0131382574152899,0.014048574909952,0.0019842665642499,-0.0009911493398249,-0.0012770083267241,still,queen
1772702330401557500,2.7115576171875,0.0601513941019773,0.0012743125184439,0.0143826862521236,0.0050029596313834,0.0006027524359524,-0.0012868619523942,still,queen
1772702330411505400,2.72150537109375,0.0522217701464891,0.0041025353814242,0.0137661572223994,0.0043755061924457,2.04839743673e-05,-0.0007038516923785,still,queen
1772702330421453600,2.73145361328125,0.0523731613159179,-0.0036068425526609,0.0154315011853119,0.0011187260970473,0.0023459563963115,-0.0011611164081841,still,queen
1772702330431401500,2.7414013671875,0.0538701218754053,-0.0009376644426025,0.0156149109112215,0.0012820237316191,0.0006226147525012,-0.0003311298787593,still,queen
1772702330441348600,2.7513486328125,0.067039400050044,-0.0062691525305155,0.0145232066843775,0.0029257268179208,-5.14313578605e-05,-0.0026094643399119,still,queen
1772702330451296500,2.761296630859375,0.0580617283463478,-0.0030175029239617,0.0180531868918333,0.0002134339883923,-0.0006137788295745,-0.0008846572600305,still,queen
1772702330461243600,2.77124365234375,0.0523760839253664,-0.0108246284443652,0.0156291974481893,0.0004552491009235,0.0039471508935093,-2.23256647586e-05,still,queen
1772702330471191600,2.781191650390625,0.0544715948998928,-0.008832381481491,0.021525201250799,0.0011570029892027,-0.0022670603357255,-0.0010411203838884,still,queen
1772702330481138700,2.791138671875,0.0580623128682374,-0.0058113988256547,0.014156946638273,0.0003047916106879,0.0002586818300187,0.002357605844736,still,queen
1772702330491086800,2.8010869140625,0.0553694205224514,-0.0070287067601224,0.0182126266536884,0.0013975957408547,-0.0001614931970834,6.56563788652e-05,still,queen
1772702330501034800,2.81103466796875,0.0532744940698146,-0.0047257772797252,0.0160048509437241,0.0009011821821331,-0.0004736157134175,0.0033464045263826,still,queen
1772702330510982700,2.820982666015625,0.0516278959065675,0.0014604736071545,0.0210832227870938,0.0001040617935359,-0.000570829026401,-0.0011550800409168,still,queen
1772702330520929800,2.8309296875,0.0585106411576271,-0.0024634401046205,0.0169675790456356,-0.0016584182158112,-0.000619831494987,0.0020260661840438,still,queen
1772702330530878000,2.8408779296875,0.060454176440835,-0.0074424158272799,0.014009864034492,-0.0021976949647068,-0.0013588722795248,-0.0006009906064718,still,queen
1772702330540825900,2.850825927734375,0.0540185904353857,-0.0083681569366483,0.0189297299810568,-0.0026714717969298,-0.0014906986616551,-0.0001322743482887,still,queen
1772702330550772700,2.860772705078125,0.056112347844243,-0.0084162429952295,0.0120786585098947,-0.0002252007834613,0.0012396448291838,0.0018986794166266,still,queen
1772702330560720600,2.870720703125,0.0517722728133201,-0.0058065034548286,0.0155089115197886,-0.0003000353462994,-0.0002040546387434,0.0004054452292621,still,queen
1772702330570668800,2.880668701171875,0.0471335070967674,-0.0053108882578788,0.0177512196870171,0.0027210302650928,-0.0007094955071806,-0.0009514729026705,still,queen
1772702330580616700,2.89061669921875,0.0447398899585008,-0.0117432776592439,0.0129298707950394,0.0005100737325847,0.0014657743740826,-0.0026124864816665,still,queen
1772702330590563800,2.900563720703125,0.0516238042533397,-0.006688935145433,0.0123982275867718,0.0033176876604557,0.0006406577304005,0.0019273771904408,still,queen
1772702330600511700,2.91051171875,0.0484819990962743,-0.0024039010702632,0.0146689604141749,0.0015690559521317,0.0020537311211228,-0.0006154091097414,still,queen
1772702330610460000,2.9204599609375,0.0567138208687305,0.001739377313503,0.009997571069654,0.0052519524469971,0.0006755301728844,-6.77113421261e-05,still,queen
1772702330620407800,2.93040771484375,0.0493827473282814,0.0025841575745726,0.019814871935267,0.002942991675809,0.0017389303538948,-0.0020392492879182,still,queen
1772702330630354700,2.940354736328125,0.0606067366540431,0.0037552243476733,0.0191600818379432,0.0023238793946802,-0.0023564361035823,-0.0003922805190086,still,queen
1772702330640302600,2.950302490234375,0.0499830513089895,-0.0010249682667199,0.0135291724120383,0.0003454168327152,-0.0016525629907846,0.0007086703553795,still,queen
1772702330650250800,2.960250732421875,0.0423521180391311,-0.0044016279258532,0.0171759496828657,0.002288305433467,-0.0001936815679073,-0.0010868376120924,still,queen
1772702330660198700,2.97019873046875,0.056268999710679,-0.0154900036066304,0.0108699037746409,4.64566983282e-05,-0.0021108915098011,-5.11342659592e-05,still,queen
1772702330670145800,2.980145751953125,0.0419037897497415,-0.0063579222259344,0.0129845806739409,0.0017555369995534,0.0017811488360166,0.000811452511698,still,queen
1772702330680093700,2.99009375,0.0550718988806009,-0.0044161222420865,0.0171471528466441,0.0006945338100194,2.98540107905e-05,0.0006995997391641,still,queen
1772702330690041900,3.000041748046875,0.0519289246797561,-0.0086579016974195,0.0135753427914576,-0.0010580280795693,-0.0003455230034887,-0.0007010158151388,still,queen
1772702330699988700,3.00998876953125,0.0579144288301467,-0.0084445329413749,0.0111236091076512,0.0011049914173781,0.0010451795533299,0.0021437727846205,still,queen
1772702330709936600,3.0199365234375,0.0609065963834524,0.0041943509838776,0.0204985045345849,-4.64068725705e-05,0.0006630131974816,-0.0025082319043576,still,queen
1772702330719884500,3.029884521484375,0.0492348632901906,-0.0004902038028929,0.0120287138543673,-0.0012024850584566,-0.0015633893199265,0.0023547001183032,still,queen
1772702330729832700,3.039832763671875,0.0552191983968019,-0.0030582778923446,0.0093202152307843,-0.0031707291491329,-0.0024179825559258,0.0033303247764706,still,queen
1772702330739779600,3.049779541015625,0.0656932461380958,0.0039539846230531,0.0136229333764058,-0.0004862626083195,-0.0002847905270755,-0.0008521699346601,still,queen
1772702330749727700,3.059727783203125,0.0522252772778272,0.004923062550649,0.0127200388530851,-0.0018823645077645,0.0004381448961794,-0.0007225654553622,still,queen
1772702330759675600,3.069675537109375,0.0513268671333789,-0.0052738715825835,0.0160846495981095,-0.0026703937910497,4.31980006396e-05,2.73808836936e-05,still,queen
1772702330769623800,3.079623779296875,0.0501285972595214,0.0018874668475706,0.0122311547910212,-0.0008972501382231,-0.0015866705216467,-0.0001567588187754,still,queen
1772702330779571000,3.089571044921875,0.0529722962528467,-0.0055382490066578,0.0107811340792221,0.0017368821427226,-0.0028436826542019,-0.0023464097175747,still,queen
1772702330789518800,3.099518798828125,0.0558159952461719,-0.0036947263320907,0.0110327958689071,0.002643737476319,-0.0003162710927426,-0.0003836057148873,still,queen
1772702330799466800,3.109466796875,0.0492325252026319,0.0021004200450843,0.0124337418581475,0.0013787359930574,0.002350352006033,-0.0002765469253063,still,queen
1772702330809414700,3.11941455078125,0.0480354243725538,0.0078437220705905,0.0190115698954788,0.0010689380578696,-0.0014257659204304,-0.0006563842762261,still,queen
1772702330819361800,3.12936181640625,0.0435474653035402,0.0013113657263573,0.0078851637592539,0.0011421749368309,-0.0015661143697798,-0.0011075236834585,still,queen
1772702330829309700,3.139309814453125,0.0529758033841848,0.0009567527355626,0.0091502495083375,0.0028280781116336,-0.0001324969343841,0.0028591137379407,still,queen
1772702330839257600,3.149257568359375,0.0516302339941263,-0.003515104582021,0.0143436283167917,0.0011092741042375,-0.000547151081264,0.0003064735792577,still,queen
1772702330849204700,3.159204833984375,0.0577653757482767,-0.0043626293560257,0.0109699574824771,-0.0005746316164731,0.0023757191374897,5.67999668419e-05,still,queen
1772702330859153000,3.16915283203125,0.0472913280069828,-0.0005459799775853,0.0207520683037,0.0014126193709671,-0.0005939714610576,0.0003979508765041,still,queen
1772702330869100800,3.179100830078125,0.0429524220198392,0.0001212471929145,0.0181589625209802,0.0001161377876996,-0.0014122780412435,0.0016453652642667,still,queen
1772702330879048700,3.189048583984375,0.0492372013777494,-0.0007673630767269,0.0154331086205085,0.0011081653647124,0.0022114855237305,0.002283192705363,still,queen
1772702330888995600,3.19899560546875,0.0498357517927885,-0.0028973425764357,0.0242796647578245,-0.001540417317301,0.0008802912198007,-0.00253436435014,still,queen
1772702330898943700,3.20894384765625,0.0474409656107425,-0.0047822612738935,0.0218313377406564,-0.0016003386117517,0.0002480568364262,0.0009804754517972,still,queen
1772702330908891600,3.2188916015625,0.0565682749181985,-0.0022092598475748,0.0179838639656896,-0.0015352210029959,-0.0024218568578362,0.0005402672104537,still,queen
1772702330918839800,3.22883984375,0.0549216767549514,-0.0058800938474247,0.0158221421874244,-0.001316309440881,0.0020669009536504,0.0004933956079185,still,queen
1772702330928786700,3.23878662109375,0.0504313795983791,0.0030600679906317,0.0167518379527027,-0.0029334127902984,-0.0018786224536597,-0.0001938273198902,still,queen
1772702330938734800,3.24873486328125,0.0478869558125734,0.0033775866743177,0.0161915097893564,0.0007625222206115,0.00106763234362,-0.0010284620802849,still,queen
1772702330948682800,3.258682861328125,0.0525257215291261,0.004567750873533,0.0173987210214952,-0.000925182364881,0.0007400317117571,0.0010990547016263,still,queen
1772702330958631000,3.268630859375,0.0537228223592042,0.0004612151704262,0.0225704679534537,0.0007699197158217,2.63047404587e-05,-0.0012687619309872,still,queen
1772702330968577500,3.27857763671875,0.0335217458516359,-0.0062127233352744,0.0192594733920763,0.0002769692800939,-0.0008040694519877,0.0005152290686964,still,queen
1772702330978525700,3.288525634765625,0.0540220975667238,-0.0064748403036035,0.0148955105954897,0.0011619376018643,-0.0001984667032957,0.0003024428151547,still,queen
1772702330988473600,3.2984736328125,0.0459428360074758,-0.0018355448640882,0.0091157102012075,6.14412128925e-05,0.0009613959118723,0.0016923076473176,still,queen
1772702330998420700,3.308420654296875,0.0516302339941263,0.0016137599061476,0.0123705883778864,0.0002241600304841,0.0001872153952717,0.0022110915742814,still,queen
1772702331008368600,3.31836865234375,0.0463940869063138,0.0009235765517456,0.0160071684816852,0.0027323430404067,0.00148760760203,0.0002691326662898,still,queen
1772702331018316800,3.32831689453125,0.0529793105155229,0.0006581670812098,0.0223269255381426,0.0006825081072747,0.000171473249793,0.0014654248952865,still,queen
1772702331028264700,3.3382646484375,0.0592646743953228,0.0030067577676614,0.021026928305882,-0.0004243534058332,-0.0011397507041692,0.0031932452693581,still,queen
1772702331038211800,3.3482119140625,0.0580675735652446,-0.0109122382291592,0.0161515225555514,0.0011666188947856,-0.0019275140948593,0.0016752434894442,still,queen
1772702331048159700,3.35815966796875,0.0510351907104253,-0.0009952078826958,0.0095280629949178,0.0020382953807711,-0.0020303553901612,0.0010319272987544,still,queen
1772702331058107600,3.368107666015625,0.0564227289676666,0.0071926194844068,0.0119813150656642,0.0021586704533547,-0.0003072903491556,-0.0012019320856779,still,queen
1772702331068055600,3.3780556640625,0.0559738161563873,0.0010617931457702,0.0167379258750705,-0.0002966276369988,-7.35744833946228e-07,-0.0007205451838672,still,queen
1772702331078002700,3.388002685546875,0.0564227289676666,-0.0059938153210096,0.0148693418244831,-0.0008990350179374,3.97441908717e-05,0.0008664326742291,still,queen
1772702331087950600,3.39795068359375,0.0628565614074468,0.0002753920084331,0.0210794804770266,-0.0014334516599774,-0.0028022094629704,0.0012651872821152,still,queen
1772702331097898800,3.407898681640625,0.0555243188232183,0.0022281928769079,0.0200792584924958,-0.0004978831857442,0.0008622999303042,0.0017890310846269,still,queen
1772702331107846700,3.4178466796875,0.0417570747554302,0.0022853801239747,0.01502901219849,-0.0002266787923872,0.000543292146176,-0.0014253875706344,still,queen
1772702331117793800,3.427793701171875,0.0444511361449956,0.0015369957423536,0.0095099291166057,0.0001682681031525,0.001408819342032,0.000304602086544,still,queen
1772702331127741700,3.43774169921875,0.0523813446223735,0.000289584930567,0.0177704358441405,-0.0010742018930613,0.0003323792479932,-0.0009605675004422,still,queen
1772702331137689900,3.44768994140625,0.0550742369681596,-0.0052164834061171,0.0164410618203459,-0.0017578350380063,-0.0012908172793686,0.0016336175613105,still,queen
1772702331147636700,3.45763671875,0.0437017790824174,-0.0076689089263789,0.0158904262172407,0.0006693131290376,0.0015168958343565,-0.0004212707281112,still,queen
1772702331157584600,3.467584716796875,0.0525303977042436,-0.0045454111775616,0.0148364099525497,-0.0008263178169727,-4.42494638264e-05,-0.0004734685644507,still,queen
1772702331167532800,3.47753271484375,0.0577682983577251,-0.0018467969104647,0.0105310317756724,-0.0001013707369565,0.0024783513508737,-0.000811546575278,still,queen
1772702331177480700,3.487480712890625,0.0451993241637945,-0.0029611056947614,0.0163028977419598,0.0018461989238858,-0.0002173003740608,0.0008547934703528,still,queen
1772702331187427800,3.497427734375,0.0615098229736089,-0.0072375865707173,0.021491070652334,0.0006114542484283,-0.0017748135142028,-0.0011458380613476,still,queen
1772702331197375700,3.507375732421875,0.0579185204833745,-0.004929743453185,0.0161213511795736,0.0006729732267558,0.0004420019686222,-0.0001404946669936,still,queen
1772702331207324000,3.517323974609375,0.0520838229805231,-0.002504260738776,0.0127415588484378,0.0032656393013894,0.0005115293897688,0.0007427800446748,still,queen
1772702331217271800,3.527271728515625,0.0540302808731794,-0.0029880302343051,0.0172184188514132,0.0005071372725069,0.0014090146869421,-0.0001770756207406,still,queen
1772702331227218700,3.53721875,0.0552273817032575,-0.0004014523737831,0.0196932411498622,0.0010067936964333,-0.0013255076482892,0.0011762930080294,still,queen
1772702331237166600,3.54716650390625,0.0543307251244783,-0.0026145801122998,0.0172542893158155,0.0016006785444915,0.0016617600340396,-0.0025089890696108,still,queen
1772702331247114800,3.55711474609375,0.0540314499169588,-0.0013861114630009,0.0114637939975829,0.0009596729651093,-0.0001551890745759,0.0007496909238398,still,queen
1772702331257062700,3.567062744140625,0.0547796379357576,-0.005699727745261,0.0122109659529407,0.0018702079541981,0.0009614746086299,-0.000317171216011,still,queen
1772702331267009800,3.577009765625,0.0598679009854793,-0.002144245487079,0.01169427828521,-0.0008508921600878,-0.0019006882794201,0.0005188030190765,still,queen
1772702331276957700,3.586957763671875,0.0446054499238729,-0.0010097935304744,0.0134079343522782,0.0011363588273525,-0.0026754019781947,0.0018581068143248,still,queen
1772702331286905900,3.59690576171875,0.0541828410863876,0.0020674493572441,0.0141569009725004,-0.0014211740344762,0.0021281405352056,0.0005008205771446,still,queen
1772702331296852700,3.606852783203125,0.0577735590547323,-0.0047895495312055,0.0159697408144362,-0.0030912421643733,3.24989669024e-05,0.0002547446638345,still,queen
1772702331306801000,3.61680078125,0.0517868858605623,0.0048575960990041,0.016067497533909,-0.0005691978149116,-0.0016285027377307,-0.0001159352250397,still,queen
1772702331316748500,3.62674853515625,0.0607651420861482,0.0012493424739688,0.0179315195738105,-0.0004283166490495,0.000721470452845,1.72229483723e-05,still,queen
1772702331326696700,3.63669677734375,0.060914779689908,-0.0032159755049739,0.0139354562245658,-0.0024710912257432,0.0016790176741778,2.38688662648e-05,still,queen
1772702331336643600,3.6466435546875,0.0589700753629207,0.0026780875022988,0.0079934441560297,0.0003201677463948,-0.000911705661565,-7.46683217585e-05,still,queen
1772702331346591700,3.656591796875,0.0525356584012508,-0.0018133878312073,0.0121914187189657,-0.0002629640512168,-0.0003709467127919,-0.0015840628184378,still,queen
1772702331356539600,3.66653955078125,0.0553787728726863,-0.0073780042549828,0.0179523408828419,-0.0005167629569768,0.0004714108072221,-0.0004149349406361,still,queen
1772702331366487800,3.67648779296875,0.0565758737027645,-0.0082521202083909,0.0157202001998899,-0.0004084566608071,-0.0011131782084703,-0.0001873383298516,still,queen
1772702331376434700,3.6864345703125,0.0565764582246541,-0.0032669293740764,0.0162055634308839,0.0007297783158719,0.0012399908155202,0.0022276160307228,still,queen
1772702331386382800,3.6963828125,0.0651063861608505,0.0056461435276549,0.0120716442472185,0.0015052361413836,-0.0004871478304266,8.42763110995e-05,still,queen
1772702331396330800,3.706330810546875,0.0550806667089462,0.0010068343884078,0.0146787808385794,-0.0003480575978755,0.0002175248228013,0.0014086663722991,still,queen
1772702331406277600,3.716277587890625,0.0495446598917245,0.007011070638732,0.0066095977153512,0.0016350601799786,0.0004995591007173,-0.0004356862045824,still,queen
1772702331416225800,3.726225830078125,0.0486474187910556,0.003327810982149,0.012681595122395,0.0027293527964502,-8.87331552803e-05,-0.0009171857964247,still,queen
1772702331426173700,3.736173583984375,0.050144379350543,0.0013273350470466,0.0159156565566197,-0.0005202121101319,0.0024881951976567,0.0013347435742616,still,queen
1772702331436121600,3.74612158203125,0.0501455483943223,-0.0039184338190592,0.0160107966273208,0.0001399856992065,-0.0007038698531687,-0.0023223091848194,still,queen
1772702331446068700,3.75606884765625,0.0646603959590196,-0.0054649600081611,0.014710459185054,0.0002815267071127,0.0009559239260852,0.0003320653922855,still,queen
1772702331456017000,3.766016845703125,0.0493973603755235,0.0021530726809287,0.0164710231337696,0.0009734160266816,-2.94456258416e-05,-0.0015630398411303,still,queen
1772702331465968400,3.775968505859375,0.0556821397334337,0.016731167340721,0.0134591439497075,0.000445348676294,0.0017491627950221,0.0001856889575719,still,queen
1772702331475916300,3.785916259765625,0.0414671518981456,-0.0036815471901092,0.012357854477188,0.0013569486327469,0.0012258514761924,-0.0001970073208212,still,queen
1772702331485863400,3.795863525390625,0.0540372951358556,-0.001892905641091,0.0200976389659801,0.0012690536677837,-0.0002054055221378,-0.0002761608920991,still,queen
1772702331495811600,3.8058115234375,0.0477531002998352,0.0042924684629542,0.0066957918611937,0.0030067663174122,0.0035555106587707,-0.000460984185338,still,queen
1772702331505759500,3.815759521484375,0.0482025976330041,0.0005064973505679,0.0181872616002801,0.0018923333846032,-0.000638086348772,0.0010210596956312,still,queen
1772702331515706400,3.825706298828125,0.0465565839916467,-0.0018027522727614,0.0122885018682922,0.0010055010206997,-0.0002926746383309,0.0014655413106083,still,queen
1772702331525654300,3.835654296875,0.0573299069404602,0.0004710515778511,0.0146773218171438,-0.0003404077142477,-0.0003315820358693,-0.0014458645600825,still,queen
1772702331535602400,3.8456025390625,0.0537386044502258,-0.0017078770635416,0.0092352586273802,0.0011421744711697,0.0009003961458802,0.0011363364756107,still,queen
1772702331545550300,3.85555029296875,0.0523918660163879,0.0017811386625748,0.0127364671147894,0.0029450645670294,-0.0002167839556932,7.27786682546e-05,still,queen
1772702331555497500,3.86549755859375,0.0588274520218372,-0.0044939823844237,0.0173443308030022,0.0018739411607384,0.0009952206164598,0.0005785129033029,still,queen
1772702331565445400,3.8754453125,0.0483528197586536,0.0005995961612323,0.017474179144192,0.0005698446184396,9.4147399067e-06,0.0001584268175065,still,queen
1772702331575393500,3.8853935546875,0.0384773224323987,0.0028346800032304,0.0165687752866651,0.0012516137212514,0.0005806628614664,0.0005187527276575,still,queen
1772702331585341400,3.895341552734375,0.0501496400475501,-0.006302424612455,0.0182014499558368,0.0005917195230722,0.000699367839843,0.0001164521090686,still,queen
1772702331595288600,3.90528857421875,0.0541892708271741,-0.0026786172252614,0.0181831014483934,-0.0009912634268403,-0.0004335409030318,-7.3849223554e-06,still,queen
1772702331605236200,3.915236328125,0.0497001427143812,-0.0007393973575672,0.0087032957587041,0.0019908673129975,0.0022147265262901,-0.0002342457883059,still,queen
1772702331615184400,3.925184326171875,0.049402036550641,-0.0034392856997204,0.0080209497925301,0.0005815224722027,0.0009382735006511,0.003175931982696,still,queen
1772702331625131300,3.93513134765625,0.0580810175687074,0.0053421556123998,0.0117278540445375,0.0003480943851172,-0.0015441821888089,0.0013992465101182,still,queen
1772702331635079400,3.945079345703125,0.0511976877957582,-0.0069055096387164,0.0160434670627058,0.0017941910773515,-0.0004656016826629,-1.8426217138e-06,still,queen
1772702331645027300,3.95502734375,0.0510480501919984,-0.0065737797665875,0.0164995414087781,-0.000634441152215,-0.0036711292341351,-0.0011087346356362,still,queen
1772702331654975500,3.9649755859375,0.058529345858097,-0.0010814522608881,0.0149655207915115,0.0001575830392539,-0.0009616292081773,-0.0003910125233232,still,queen
1772702331664922400,3.97492236328125,0.0622697014302015,0.0031753877662587,0.0090489240087335,0.0003770166076719,-0.0011119246482849,-0.0008167622145265,still,queen
1772702331674870500,3.98487060546875,0.0514957939594984,-0.0069774651966523,0.0153145534248906,0.0027472299989312,0.0006721271201968,0.0006977776065468,still,queen
1772702331684818400,3.994818359375,0.0556862313866615,-0.009399714774359,0.0152260737071279,-0.001785737928003,0.0016753620002418,0.0019829533994197,still,queen
1772702331694766300,4.004766357421875,0.0540408022671937,-0.0020988719753921,0.018689641039801,-0.0005007628351449,-0.0002474403008818,-0.0005611642263829,still,queen
1772702331704713500,4.01471337890625,0.053441667330265,-0.0032293099105823,0.0134834838065202,-0.0015793251805007,-0.0016184607520699,-0.0003216275945305,still,queen
1772702331714661400,4.024661376953125,0.0579302109211683,-0.0133426163143944,0.0124805241589201,-0.0004938207566738,-0.0006203078664839,0.0001806444488465,still,queen
1772702331724609300,4.034609375,0.0594265869587659,-0.0082913562402362,0.0094679622715571,-9.23234038054e-05,0.0012046261690557,0.0019338922575116,still,queen
1772702331734556400,4.044556396484375,0.0622702859520912,-0.0013476015169406,0.007082235037157,0.0007604206912219,0.0006687981076538,-9.51699912548e-05,still,queen
1772702331744504600,4.054504638671875,0.0532920297265052,-0.00801395037123,0.0067140741532668,-0.0008547371253371,0.0024769857991486,-0.0012645947281271,still,queen
1772702331754452500,4.064452392578125,0.0488023170918226,-0.0097599994541145,0.006615988640231,-0.002362884581089,-0.0004381104372441,-0.0003077210858464,still,queen
1772702331764400400,4.074400390625,0.0558346999466419,-0.0048106151521205,0.0083821169633418,-0.0015976498834788,0.0011740350164473,-8.44937749207e-05,still,queen
1772702331774347300,4.08434716796875,0.0535895513683557,0.0027586647581076,0.0089192149481503,-0.0021712947636842,-0.0002331789582967,0.0021877153776586,still,queen
1772702331784295400,4.09429541015625,0.0564326658397912,0.0040816615567542,0.0118682192131644,-0.000440027564764,0.0002563651651144,-0.0021149443928152,still,queen
1772702331794243300,4.104243408203125,0.0467068061172962,0.007663757827226,0.0131770093899453,0.0003772964701056,-0.0011114343069493,-0.0013250508345663,still,queen
1772702331804191200,4.114191162109375,0.0604734656631946,0.0048841735786758,0.0179731758916052,0.0007708640769124,-0.0027357479557394,-0.0013936276081949,still,queen
1772702331814138400,4.124138427734375,0.0534404982864856,-6.56993470853e-05,0.0153039612489286,-3.36770899593e-05,-0.0003290497697889,0.0011054826900362,still,queen
1772702331824086500,4.13408642578125,0.0479039069473743,-0.0123324665908934,0.006670776150946,8.18222761154e-05,0.0001926366239786,0.0010482161305844,still,queen
1772702331834034400,4.144034423828125,0.0459586180984973,-0.0051651961768744,0.0192462828336516,0.001665870193392,-0.0018199142068624,0.0023174788802862,still,queen
1772702331843981600,4.153981689453125,0.0452104300796985,-0.002153250777442,0.0138091538306209,-0.0016931453719735,0.0019963928498327,0.0018443819135427,still,queen
1772702331853929200,4.16392919921875,0.0600245528519153,-0.0007940547208301,0.0051315793183515,-0.0015453398227691,-0.0002960562705993,-0.0001596468500792,still,queen
1772702331863877400,4.17387744140625,0.059126142707467,-0.0045120888632722,0.0123784828483301,-0.0004624561406672,0.0006919507868587,0.0001397123560309,still,queen
1772702331873825300,4.1838251953125,0.0426660062938928,-0.0015288855011342,0.0147251532890426,0.0006757788360118,0.002528732875362,-4.80408780276e-05,still,queen
1772702331883772400,4.1937724609375,0.0528413633495569,-0.0079848156082909,0.0091241526609228,-0.0016821599565446,-0.0012374292127788,0.0005608377978205,still,queen
1772702331893720300,4.20372021484375,0.0395236166149377,-0.0034925959226908,0.0216881960930535,0.0015703584067523,0.0014941748231649,0.0001560375094413,still,queen
1772702331903668500,4.21366845703125,0.0505962147712707,0.0044548924830509,0.016053026050562,-0.0012202886864542,0.0021027459297329,-0.0011148271150887,still,queen
1772702331913616400,4.223616455078125,0.0574795445442199,0.00968348645207,0.0037517183579795,0.0003533731214702,0.0008207000792026,0.0003408566117286,still,queen
1772702331923563500,4.2335634765625,0.0505967992931604,-0.0007515216202009,0.0073676141500647,0.0008273320272564,-0.0001212847419083,-0.0008689719252288,still,queen
1772702331933511400,4.243511474609375,0.0543383239090442,-0.0006636835065437,0.014885573723365,0.0007282625883817,-0.0004555117338895,-0.0003935978747904,still,queen
1772702331943459600,4.25345947265625,0.0477548538655042,-0.0046622790228808,0.0113501775552751,0.0013078395277261,0.0010455697774887,-0.0005667700897902,still,queen
1772702331953406200,4.26340625,0.042816812941432,-0.0040677471958333,0.0177883231272804,-0.0002786056138575,0.000669265165925,-0.0003816802054643,still,queen
1772702331963354400,4.273354248046875,0.055985506594181,0.0019354981072247,0.0138404839755792,-0.001882491633296,-0.0005332292057573,-4.02121804654e-05,still,queen
1772702331973302300,4.28330224609375,0.0495510896325111,0.0106960336286341,0.0097121177498658,0.0008834674954414,-0.0005103261210024,0.0005483464337885,still,queen
1772702331983250400,4.29325048828125,0.0516460160851478,0.0015579334991052,0.0120646254179649,-0.0002192799001932,-0.0009698034264147,-3.99001874029e-05,still,queen
1772702331993197600,4.303197509765625,0.0538899956196546,0.0040560019591124,0.0127675460979982,-0.0012011877261102,0.0006794920191168,0.001128694973886,still,queen
1772702332003145500,4.3131455078125,0.0486520949661731,0.0040415396089199,0.016801373899565,-0.0016772295348346,0.0014189367648214,-0.0010431467089802,still,queen
1772702332013093400,4.32309326171875,0.0597252776443958,0.0044972474871668,0.0130656556866713,-0.0005014440976083,0.0021883239969611,0.00139897223562,still,queen
1772702332023041500,4.33304150390625,0.0523936195820569,0.0050316877240082,0.0105366052832221,0.0017913598567247,0.0007201149128377,-0.0018324030097573,still,queen
1772702332032988400,4.342988525390625,0.0517950691670179,0.0005172014076728,0.0181234493912488,0.0010336907580494,-0.0013174694031476,0.0019724550656974,still,queen
1772702332042936300,4.352936279296875,0.0419189873188734,0.0086296482838923,0.0172935595969902,-0.000966131221503,-0.0015558395534753,0.0014575803652405,still,queen
1772702332052884200,4.36288427734375,0.0452104300796985,-0.0016119013092014,0.0145087831500917,4.45381738245e-05,-0.0011664852499961,0.0028528105467557,still,queen
1772702332062831400,4.372831298828125,0.0579296263992786,0.0020802266404265,0.009756733209727,-0.0038581266999244,0.0001301737502217,0.0013928287662565,still,queen
1772702332072779500,4.382779541015625,0.0585281768143177,0.0071948342743795,0.0095448348915611,0.0016540838405489,0.0005663996562361,0.0022711395286023,still,queen
1772702332082727400,4.3927275390625,0.0480535445511341,0.0024507039206335,0.0123742633309389,-0.0014223158359527,-0.002951743081212,-0.0005216104909777,still,queen
1772702332092675300,4.40267529296875,0.0505967992931604,-0.0023466681574238,0.0197396147419698,-0.0018468238413333,-0.0014686281792819,-0.0032100714743137,still,queen
1772702332102622500,4.41262255859375,0.0491004232555627,-0.0050337472503539,0.0129236374170752,0.0027502996381372,-0.0024996758438646,-0.0004254812374711,still,queen
1772702332112570400,4.4225703125,0.051494624915719,0.0025305550906574,0.0069406505924009,0.0029420473147183,-0.0011076414957642,-9.17869620025e-05,still,queen
1772702332122518300,4.432518310546875,0.0447609327465295,-0.0068731326059205,0.0105942229301959,-0.0003141267225146,-1.06496736407e-05,0.0009900643490254,still,queen
1772702332132466400,4.442466552734375,0.048501288318634,-0.0057273418379714,0.0176196291966014,0.0004334226250648,-0.0021582227200269,-0.0009782779961824,still,queen
1772702332142413300,4.452413330078125,0.0582277325630187,0.0001749775409931,0.0146459642727219,0.001131035387516,0.0011857678182423,0.0016192882321774,still,queen
1772702332152361500,4.462361572265625,0.0467056370735168,-0.0024050929469289,0.013765034986037,-0.0006458256393671,0.0001047905534505,0.0024243621155619,still,queen
1772702332162309400,4.472309326171875,0.0462567242622375,-0.0023812097478425,0.0148138807436218,-0.0003194804303348,0.001085452735424,-0.0009035605471581,still,queen
1772702332172256500,4.482256591796875,0.0592746112674474,-0.0060229363842168,0.0175612101153179,-6.99423253536e-05,0.0008833189494907,-0.0020412630401551,still,queen
1772702332182204400,4.492204345703125,0.0574783755004406,0.000403671730333,0.0150847940814041,4.10457141697e-05,-0.0028003486804664,-0.001707092160359,still,queen
1772702332192152600,4.502152587890625,0.050595630249381,0.0065788760668132,0.0140125000912172,-0.000509163364768,7.98599794507e-05,0.0024687442928552,still,queen
1772702332202100500,4.5121005859375,0.0479021533817052,0.0040594268920598,0.017878736790514,0.0003077508881688,0.0007473062723875,0.0007392596453428,still,queen
1772702332212047400,4.52204736328125,0.0496978046268224,-0.0010074737092247,0.0165847366158443,-0.0008411365561187,-0.000263097230345,0.0028823055326938,still,queen
1772702332221995300,4.531995361328125,0.0419172337532043,0.0020533295003464,0.0118168851765047,0.0021335799247026,0.0015322128310799,-0.000522774644196,still,queen
1772702332231943400,4.541943359375,0.0510457121044397,0.0021436655317666,0.0168600863834377,0.0003364789299666,-0.0011666342616081,0.0002420856617391,still,queen
1772702332241891300,4.551891357421875,0.0507464368969202,0.0002956356454407,0.0125057602065207,-0.0007531535811722,0.0026950128376483,0.0005158060230314,still,queen
1772702332251838500,4.56183837890625,0.0496983891487121,0.0004655579854035,0.0104709047944925,-0.0002538110129535,-0.0012936033308506,0.0012282016687095,still,queen
1772702332261786400,4.571786376953125,0.0505962147712707,-5.20361479138e-05,0.0120298292408639,0.0005627912469208,0.0027977097779512,0.0014180894941091,still,queen
1772702332271734500,4.581734619140625,0.0558335309028625,-0.0027244702275609,0.0145235286280745,0.0004344265908002,-0.0009405696764588,-0.0015007350593805,still,queen
1772702332281681400,4.591681396484375,0.0517927310794591,0.0035006285320967,0.0071915920045226,-0.001044841017574,-0.0006058765575289,0.0007812324911355,still,queen
1772702332291629300,4.60162939453125,0.0468546901553869,0.0061665095733711,0.0076405322152655,0.0010228375904262,-0.0015805936418473,-0.0011085467413067,still,queen
1772702332301577200,4.6115771484375,0.0470049122810363,0.000105967425392,0.0130391364308597,0.0010724253952503,0.0002477997913956,0.0008263490162789,still,queen
1772702332311525400,4.621525390625,0.0487999790042638,-0.0024631341439438,0.0211622268570354,-0.001169423572719,-0.0003508790396153,0.0010963934473693,still,queen
1772702332321472500,4.631472412109375,0.0443108508914709,0.0019989780977601,0.0192673301882576,-0.0004298789426684,0.0012048138305544,0.0003290669992566,still,queen
1772702332331420400,4.64142041015625,0.0555336711734533,0.0052662225656677,0.011620373940427,-0.0009950017556548,0.0005097286775708,-0.0014430002775043,still,queen
1772702332341368300,4.651368408203125,0.0528407788276672,0.0042553193569183,0.0107043562156963,0.0016356431879103,-0.0010771267116069,-0.0009427543263882,still,queen
1772702332351315500,4.6613154296875,0.055084758362174,0.0006926949718967,0.0035435566416592,0.0018968996591866,0.0009969430975615,-0.0011651283130049,still,queen
1772702332361263600,4.671263671875,0.0682534520149231,-0.003734916778584,0.0128652674264973,-8.17021355032e-05,-0.0037988084368407,0.0006330506876111,still,queen
1772702332371211300,4.681211181640625,0.0501478864818811,-0.010134787583258,0.0153341246333962,0.0018826457671821,-0.0011385767720639,0.0009744679555296,still,queen
1772702332381159400,4.691159423828125,0.0525432571858167,-0.0010633549151942,0.0182428402705059,0.0013834349811077,0.0032170547638088,-0.0001467415131628,still,queen
1772702332391106300,4.701106201171875,0.0568833322167396,0.0018952893944224,0.0183786662613332,1.85649842023e-05,-0.0008447985164821,0.0006372928619384,still,queen
1772702332401054500,4.711054443359375,0.048503041884303,0.0009021136386087,0.0123132401589711,-0.000658655539155,-0.0007894407026469,0.0014066640287637,still,queen
1772702332411002400,4.72100244140625,0.0541886863052845,-0.0040771863110363,0.0120837536684761,0.0006292490288615,-0.0002498840913176,0.0024146707728505,still,queen
1772702332420950500,4.730950439453125,0.0555354247391223,-0.0003707238753791,0.010409011689556,-0.0015361858531832,0.0007708417251706,-0.0001256912946701,still,queen
1772702332430897400,4.7408974609375,0.0482020131111145,-0.0036359270832501,0.0111955144332372,0.0001125773414969,-0.0023911292664706,0.0030437367968261,still,queen
1772702332440845600,4.750845458984375,0.053588966846466,-0.0034696488719433,0.0186753967436728,-0.0007228022441267,-0.0013556089252233,-0.0001255488023161,still,queen
1772702332450793500,4.76079345703125,0.0513444027900695,-0.0012496256017591,0.0140440471485955,0.0008354135788977,0.0025168934371322,0.0002371738664805,still,queen
1772702332460737500,4.770737548828125,0.0493991139411926,0.0044930051368894,0.0125416340958559,-0.0003459621220827,-0.0015886700712144,6.46952539682e-05,still,queen
1772702332470685400,4.780685546875,0.0461070866584777,-0.0030003873923793,0.0146180476442677,0.0005219620652496,-0.001659776084125,0.0003925305791199,still,queen
1772702332480633600,4.790633544921875,0.0538882420539855,-0.0004915098439902,0.0139442936932144,0.0006725299172103,0.0021291328594088,0.0012967507354915,still,queen
1772702332490581500,4.80058154296875,0.0555348402172327,-0.0040533031119499,0.0178674196704116,0.0007747951894998,-1.39130279421e-05,-0.0012838523834943,still,queen
1772702332500528600,4.810528564453125,0.0507458523750305,0.0055735577820567,0.0143123792285798,-0.000947717577219,-0.0004250179044902,-8.49124044179e-05,still,queen
1772702332510476500,4.8204765625,0.056132806110382,-0.0005012320869835,0.0162715401975379,0.0015426040627062,-0.0001365975476801,-0.0016644331626594,still,queen
1772702332520424700,4.8304248046875,0.053139469513297,-0.007403915014374,0.010459197232034,-0.0019130576401948,-0.0026437412016093,-0.0010517502669245,still,queen
1772702332530371300,4.840371337890625,0.0591249736636877,0.0015187568327644,0.0195951876028673,-9.9623575806e-06,0.0018825677689164,0.0011078072711825,still,queen
1772702332540319500,4.850319580078125,0.0598731616824865,0.0015262871186714,0.0173398783901706,-0.0005997358821332,0.0021542296744883,-0.0016447552479803,still,queen
1772702332550267400,4.860267333984375,0.0502969395637512,-0.0047441805860958,0.0141494517433398,0.0002996139228343,-0.00013422453776,-0.0012266389094293,still,queen
1772702332560215600,4.870215576171875,0.0597252776443958,0.0023201637429883,0.0146222249208192,0.0011056209914386,0.0013423657510429,-0.0013529665302485,still,queen
1772702332570162400,4.880162353515625,0.0559843375504016,0.0047566610417561,0.0125651770849362,0.0007570129819214,-6.61802478134e-05,0.0013533378951251,still,queen
1772702332580110600,4.890110595703125,0.0522433974564075,0.0065002670058049,0.0105958303653926,0.0010687881149351,0.000324088614434,8.47233459353e-05,still,queen
1772702332590058500,4.90005859375,0.0658610039204359,-0.0016465113982791,0.0098558005368744,0.0018315170891582,0.00174674927257,-0.001223421189934,still,queen
1772702332600006700,4.910006591796875,0.0497001427143812,-0.0039234981532441,0.0145948003410652,0.0017826789990067,-0.0013662311248481,-0.0022936351597309,still,queen
1772702332609953500,4.91995361328125,0.0543394929528236,-0.0006265663665486,0.0152753493590862,-4.3184030801e-05,1.19544565677e-05,-0.0001495243050158,still,queen
1772702332619901400,4.9299013671875,0.0600245528519153,0.009551439303928,0.0086707920033892,-0.0009921053424477,0.0007556709460914,0.0001903497613966,still,queen
1772702332629849300,4.939849365234375,0.0488023170918226,1.33161392994e-05,0.0023999738138169,0.0030686825048178,0.0020433093886822,-0.0002722414210438,still,queen
1772702332639796500,4.94979638671875,0.058978843191266,-0.0003130343048134,0.0104869220642431,-0.0001535285264253,0.0010774042457342,2.92067416012e-05,still,queen
1772702332649744400,4.959744384765625,0.0588292055875062,-0.0029527031925972,0.012839656919561,-0.001779920887202,-0.0003929273225367,0.0003879345022141,still,queen
1772702332659692500,4.969692626953125,0.0631675270527601,-0.0006352291636168,0.0131640003529668,-0.0013843574561178,-0.0005676602013409,0.0004373416304588,still,queen
1772702332669640400,4.979640380859375,0.0564338348835706,-0.0023013266117777,0.0104191026836633,-0.0007254914380609,-0.0024004476144909,0.0004487931728363,still,queen
1772702332679587600,4.989587646484375,0.05044833073318,0.0024306977456435,0.0086511785540438,0.0029812068678438,-0.0014792699366807,0.002287043724209,still,queen
1772702332689535700,4.99953564453125,0.0562841972798109,0.0021068406527163,0.0125987642607069,-0.0020846584811806,0.0005324818193912,-0.0013652150519192,still,queen
1772702332699483600,5.009483642578125,0.0459586180984973,-0.0056092318836366,0.0096645340147835,-0.0004576472565531,-0.0017091166228055,-0.0006696872878819,still,queen
1772702332709430500,5.019430419921875,0.0562836127579212,0.0032546270149294,0.0136639526566723,0.0003927000798285,0.0004970459267497,-0.0021200447808951,still,queen
1772702332719378400,5.02937841796875,0.0476046317398548,0.004424789605732,0.0160800670378259,0.0001127356663346,-2.34814360737e-05,-0.0006047110073268,still,queen
1772702332729326600,5.03932666015625,0.0511965187519788,-0.0030928194827632,0.0098887780745804,-0.0009946068748831,-0.0002160277217626,-0.0024023449514061,still,queen
1772702332739274500,5.0492744140625,0.045509705287218,-0.0037876379130873,0.0171716753665474,0.0015143170021474,0.0012135645374655,0.000261737499386,still,queen
1772702332749221600,5.0592216796875,0.0639157150715589,0.0067689598453929,0.014965182864794,0.0003071059472858,0.0002460381947457,0.0008801235817372,still,queen
1772702332759169500,5.06916943359375,0.0642155748009681,0.006996530656726,0.0160932655877608,0.000434102024883,0.0026873685419559,0.0021314956247806,still,queen
1772702332769117700,5.07911767578125,0.054489715078473,0.0019729120747419,0.0149407151438179,0.0001882924698293,0.0013432709965854,-0.0004738746210932,still,queen
1772702332779065600,5.089065673828125,0.0625707302033901,0.0055827822681283,0.0120156739929923,0.0005975160747766,0.0025242895353585,0.0024899221025407,still,queen
1772702332789012500,5.099012451171875,0.0618231267064809,0.007647030454711,0.0118011715841421,0.0004515750333666,-0.0001162346452474,-0.0004161191172897,still,queen
1772702332798960400,5.10896044921875,0.0591308188825845,-0.0083837837640428,0.0137848310984729,0.0003714994527399,-0.0002844799309968,-0.0005514319054782,still,queen
1772702332808908500,5.118908447265625,0.0552396566629409,0.0001053326711524,0.0167979706578596,-0.0008538211695849,-0.0005553234368562,-0.0011069674510508,still,queen
1772702332818855400,5.12885546875,0.0642184974104166,0.0074105822171783,0.0045760460611316,0.0009555779397487,0.0025996789336204,-0.0006796054076403,still,queen
1772702332828803600,5.138803466796875,0.0743944389879703,-0.0020422144512878,0.0102662627675978,0.0022458794992417,0.001306447898969,0.0008703544735908,still,queen
1772702332838751500,5.14875146484375,0.0601794511526823,-0.0004709602463059,0.0171384980410861,0.0003445954062044,-0.0006649610586464,-0.0004499047063291,still,queen
1772702332848699600,5.15869970703125,0.0588321281969547,0.0022289235292701,0.0178100737347849,-0.0015832670032978,-0.0026737838052213,2.8326176106e-06,still,queen
1772702332858646500,5.168646484375,0.0516489386945962,-0.0074575951301027,0.0080162599176808,-0.0018313061445951,0.0021993042901158,0.0007975460030138,still,queen
1772702332868594400,5.178594482421875,0.0719996528059244,-0.0032884470861405,0.0114835912516631,0.0001106709241867,0.0012578768655657,-0.0011162015143781,still,queen
1772702332878542300,5.188542236328125,0.0607768325239419,-0.0030053786613279,0.0153496818204876,0.001057262532413,-0.0014524166472256,-0.0023081833496689,still,queen
1772702332888490500,5.198490478515625,0.0485065490156412,-0.0106756666940404,0.0143902462207828,0.001074306666851,-0.0006646537221968,0.002073782030493,still,queen
1772702332898437400,5.208437255859375,0.0604775573164224,0.0024765964137157,0.0169373585789522,-0.0022358633577823,0.0009391410276293,-0.0005821036174893,still,queen
1772702332908385500,5.218385498046875,0.0532949523359537,0.0028712719868402,0.0117479058853001,0.0003074551932513,-2.8118956834e-05,4.8573128879e-06,still,queen
1772702332918333400,5.22833349609375,0.0603279197126626,0.0022616293556289,0.0083535005069221,-0.0007724910974502,0.0021235460881143,-5.8440491557e-06,still,queen
1772702332928280600,5.238280517578125,0.0636199469953775,-0.0022932163705583,0.0131991059156775,-0.0003498471342027,0.0001829005777835,0.0005576810799539,still,queen
1772702332938228500,5.248228515625,0.0573363366812467,-0.0019756337547907,0.0176427337942644,0.0022792094387114,-0.0005321525968611,0.0003748051822185,still,queen
1772702332948176600,5.2581767578125,0.069307344982028,-0.0048895621398463,0.012395911190455,-0.0017498866654932,-0.0002317484468221,-0.0026452192105352,still,queen
1772702332958124500,5.26812451171875,0.0643693040579557,-9.4012126117e-05,0.0175065127945039,-0.0017930637113749,0.0019010214600712,0.0008036415092647,still,queen
1772702332968071400,5.278071533203125,0.0669131433218717,-0.0043480574079789,0.0134785108038806,2.45436094701e-05,-0.0016337921842932,-0.0007966521661728,still,queen
1772702332978019600,5.28801953125,0.0586824905931949,0.001903404202219,0.0079044324320158,-0.0006764815188944,-0.0023420834913849,0.0012966017238795,still,queen
1772702332987967500,5.297967529296875,0.0613747984170913,-0.0084138638084754,0.0057317086274793,-0.0017438763752579,0.0006371950730681,-0.0004456383176147,still,queen
1772702332997915400,5.307915283203125,0.0595785626500844,-0.0010468376052333,0.0109192502085468,-0.0004907534457743,0.001916300272569,0.000962515361607,still,queen
1772702333007862500,5.317862548828125,0.0577823268830776,0.003108154049213,0.0095413654344854,-0.000181027688086,-5.63031062483e-05,-0.0006335172802209,still,queen
1772702333017810700,5.327810791015625,0.0709510205358266,0.0031613912069471,0.0084156493401853,-0.0009113792330026,0.0004978608340024,0.0003899536095559,still,queen
1772702333027758600,5.337758544921875,0.0610743541657924,-0.0003780988976592,0.0104581651855725,0.0018130345270037,-0.0023234919644892,-0.000214584171772,still,queen
1772702333037705500,5.34770556640625,0.0594289250463247,-0.0022183153702877,0.0016109982685477,-0.0017144791781902,-0.0017489432357251,-0.0018647941760718,still,queen
1772702333047653400,5.3576533203125,0.0640676907628774,0.0012053572017699,0.0125634520603751,-0.0004595974460244,0.0004721330478787,-0.0014386884868144,still,queen
1772702333057601500,5.3676015625,0.0607756634801626,-0.00086453527431,0.0138262453876726,-0.0026848306879401,3.7224963307e-06,-0.001427634852007,still,queen
1772702333067549400,5.377549560546875,0.0652647915929555,0.0088991905068513,0.0100892131421715,0.001048388890922,0.0020751289557665,-0.0002129669301211,still,queen
1772702333077496600,5.38749658203125,0.0577829114049673,0.0061811774195404,0.0121475019454257,0.0009235348552465,-0.0010131858289241,-0.0023591145873069,still,queen
1772702333087444500,5.397444580078125,0.0597282002538442,0.0021389802234945,0.0140906399364117,-0.0001198919489979,7.23185949027e-05,0.0003913980908691,still,queen
1772702333097392600,5.407392578125,0.0673591335237026,0.0003807064132764,0.0030577847020002,-6.4127612859e-05,-0.0019199792295694,-0.0014810594730079,still,queen
1772702333107340500,5.417340576171875,0.0577823268830776,-0.0039118853472638,0.0166277663317509,0.001294617075473,0.0015743544790893,0.0008281674236059,still,queen
1772702333117287700,5.42728759765625,0.0631698651403188,0.0070919310223311,0.0134629376337688,0.000574926380068,-2.75960192084e-05,-0.0014897384680807,still,queen
1772702333127235300,5.4372353515625,0.0678086308568716,-0.0013011959587922,0.0146486334371322,0.0003331112675368,-0.002945355605334,-0.0001104874536395,still,queen
1772702333137183500,5.44718359375,0.0718488461583852,-0.0029911811726167,0.0133461713947937,-0.0004535652697086,-2.3718457669e-05,0.0012069856747984,still,queen
1772702333147131400,5.45713134765625,0.0666115300267934,-0.0002638294348027,0.0098455348711868,9.87742096185e-05,-0.0007875128649175,-0.0008369903080165,still,queen
1772702333157078500,5.46707861328125,0.0538923337072134,-0.0094072998591931,0.0049008507188409,0.0008717533200979,-0.0006519299931824,0.0003807730972766,still,queen
1772702333167026400,5.4770263671875,0.0600280599832534,0.0076554831892251,0.0153343655203469,-0.0008182884193956,0.0022836725693196,-0.0017968935426324,still,queen
1772702333176974600,5.486974609375,0.0631698651403188,0.0063663018952123,0.0169953518269059,0.0003444333560764,0.0021766887512058,0.0019481317140161,still,queen
1772702333186921500,5.49692138671875,0.060327335190773,0.0008749014046974,0.0088885949059564,-0.0005661016330122,-9.79173928499e-05,4.79663722217e-05,still,queen
1772702333196869600,5.50686962890625,0.0670616118818521,-0.0039678533182013,0.0051022995665844,0.0010156976059079,0.0021389962639659,0.0013474151492118,still,queen
1772702333206817500,5.516817626953125,0.0673608870893716,-0.0048384301742305,0.0117235420539567,5.72260469198e-05,0.0011309897527098,-0.0007279864512383,still,queen
1772702333216765700,5.526765625,0.0510503882795572,-0.0009946187942288,0.0106620343192655,-0.0002352544106543,-0.0007765116170048,-0.0009115659631788,still,queen
1772702333226712600,5.536712646484375,0.0588309591531753,0.0051531267131678,0.0124726068555901,-0.0001361849717795,0.0002019335515797,0.0005313344299793,still,queen
1772702333236660500,5.546660400390625,0.0691559538125991,0.0010610716265626,0.0088715741308522,0.0003497740253806,0.0009010559879243,0.0001999991945922,still,queen
1772702333246608400,5.5566083984375,0.0540425558328628,-0.0014372708280803,0.0070735939313308,0.0011926647275686,-0.0012087002396583,0.0014165309257805,still,queen
1772702333256556500,5.566556640625,0.0594300940901041,-0.005497839364456,0.0105396203658601,0.0011705118231475,-0.0012238509953022,-0.0005018077790737,still,queen
1772702333266503700,5.576503662109375,0.0594295095682144,-0.0033189883548766,0.0064217983670474,-0.0009392444044351,-0.000467246863991,0.0005677174776792,still,queen
1772702333276451600,5.58645166015625,0.0712514647871255,-0.0017313036049017,0.0057804020408366,0.0020450938027352,-0.0008584414608776,-0.0037097432650625,still,queen
1772702333286399500,5.5963994140625,0.0676601622968912,0.0052726979722268,0.013571826526965,-5.77382743358e-05,0.001423088600859,0.0013795574195683,still,queen
1772702333296347600,5.60634765625,0.0688572631269693,-0.0066652985415188,0.0112368556572007,-0.0016793380491435,0.0011791214346885,-0.0020422609522938,still,queen
1772702333306294500,5.61629443359375,0.0589811812788248,-0.0029599549172911,0.0110595057793194,0.000181945040822,-0.0033029788173735,0.0009396807290613,still,queen
1772702333316242400,5.626242431640625,0.0522469045877456,0.0007614128265529,0.0069294236621994,-0.0001634112559258,-0.0007228609174489,-0.0010746219195425,still,queen
1772702333326190600,5.636190673828125,0.0682587127119302,0.0017990076794056,0.0036725019421952,0.002670458285138,0.0011381562799215,0.0012740199454128,still,queen
1772702333336138500,5.646138427734375,0.0690069007307291,-0.0003091070483671,0.0094739399211946,-0.0008346997201442,-0.0004121479578316,-0.0010297214612364,still,queen
1772702333346085600,5.656085693359375,0.0573351676374673,0.0040152817896567,0.0140586704706365,0.000285159330815,-0.0015453225933015,-0.0013543607201427,still,queen
1772702333356033500,5.666033447265625,0.0538940872728824,-0.0053050658718682,0.0101060832202259,0.0002934415824711,0.0013345261104404,0.000628157518804,still,queen
1772702333365981700,5.675981689453125,0.0561398203730583,-0.0004793673150474,0.0147567140461527,0.0002534943632781,0.001306562917307,0.0007077860645949,still,queen
1772702333375928600,5.685928466796875,0.0627250439822673,-0.0001242702670628,0.0120760898101842,-0.0001032487489283,-0.0006032572127878,0.0026020710356533,still,queen
1772702333385876500,5.69587646484375,0.0673638096988201,0.0013250015260651,0.0084066988487495,-0.0019067414104938,0.0004585450515151,0.0017514573410153,still,queen
1772702333395824400,5.705824462890625,0.0595826543033123,-0.0024450550645589,0.0055991705722815,-0.0020771259441971,0.0013153906911611,0.0014005457051098,still,queen
1772702333405772500,5.7157724609375,0.0607791706115007,0.0055361072819214,0.0105169986837427,-0.0014566094614565,0.0011161863803863,-0.002480212599039,still,queen
1772702333415719400,5.725719482421875,0.0760422061949968,-0.0011943837166065,0.0097821450705523,-4.10652719438e-05,-0.001492500770837,0.0007624723948538,still,queen
1772702333425667600,5.73566748046875,0.0621253245234489,0.0035263200957793,0.0085044224605371,-0.002639777958393,0.0001314948312938,0.0001534074544906,still,queen
1772702333435615500,5.745615478515625,0.06781155346632,-0.0037898983688326,0.0138862410797562,0.0016793352551758,-0.000626869034022,-0.0013521106448024,still,queen
1772702333445563600,5.755563720703125,0.0690092388182878,-0.002937204229366,0.0175493096149701,0.0015674824826419,-0.0015296805649995,0.0015600561164319,still,queen
1772702333455510500,5.765510498046875,0.0639215602904558,7.42297134129e-05,0.0123661827724718,-0.0006686034612357,-0.0009187157265841,0.0001004673540592,still,queen
1772702333465458700,5.775458740234375,0.0643704731017351,-0.002322725592833,0.0109070152064145,0.0011809621937572,-0.0006819604896008,-0.00025852676481,still,queen
1772702333475406600,5.785406494140625,0.0600303980708122,-0.0006947270987788,0.0134079743098292,0.0001378282904624,-0.0016462705098092,0.0009117219597101,still,queen
1772702333485354800,5.795354736328125,0.0523982957571744,0.0017985784211428,0.0122273713817587,0.0012851180508732,-0.0030926330946385,-0.0001189215108752,still,queen
1772702333495301600,5.805301513671875,0.0540443093985319,0.006160417759302,0.0108052593069034,0.0013441545888781,0.0016987335402518,-0.0008448120206594,still,queen
1772702333505249500,5.81524951171875,0.0589823503226041,-0.0001128538239048,0.0213446661852765,-0.0001117959618568,-0.000130858272314,0.0021821367554366,still,queen
1772702333515197400,5.825197509765625,0.0643698885798454,0.0006751638817833,0.0135621385333011,0.0008121440187096,0.0005317335017025,0.0003582201898097,still,queen
1772702333525145600,5.8351455078125,0.0646691637873649,0.000511826546234,0.0096848678416921,0.000209470745176,0.0002033659256994,0.0014613019302487,still,queen
1772702333535092500,5.845092529296875,0.0639203912466764,0.0093903350246604,0.0196600330000044,-0.0014893296174705,-0.0004282486625015,0.0024563479237258,still,queen
1772702333545040600,5.85504052734375,0.0604787263602018,0.0093050815937342,0.0085474476098665,0.0013543935492634,0.0012604617513716,0.0004003876820206,still,queen
1772702333554988500,5.864988525390625,0.059730538341403,0.0025549406132427,0.0134744853660231,0.001350900158286,0.0012592480052262,-0.0022469270043075,still,queen
1772702333564936700,5.874936767578125,0.0740963328242301,-0.0017744531934615,0.0125972789814521,-0.0006928094662725,0.0014344840310513,-7.7411532402e-06,still,queen
1772702333574883600,5.884883544921875,0.0670639499694109,-0.0046906192013761,0.0213254066456691,0.0019639427773654,0.0013108318671584,0.001825904008001,still,queen
1772702333584831700,5.894831787109375,0.0604798954039812,-0.0023824472902808,0.0098277663190558,0.0013018809258937,-0.001741949468851,0.0001616948284208,still,queen
1772702333594779400,5.904779296875,0.0625748218566179,-0.0053655364879872,0.0005982627206714,0.0018728948198258,0.0001834314316511,-0.0015424389857798,still,queen
1772702333604727600,5.9147275390625,0.057188452643156,0.0025053384510101,0.0071984669865923,0.0005572936497628,-0.0002972693182528,-0.0010878373868763,still,queen
1772702333614674700,5.9246748046875,0.0645212797492742,0.008756937058526,0.01430441968441,0.0027924154419451,-0.0025511062704026,0.0017653964459896,still,queen
1772702333624622600,5.93462255859375,0.051653030347824,-0.0064908507234882,0.0182981837620027,0.0002735978923738,-0.0001473370939493,-0.0020186891779303,still,queen
1772702333634570500,5.944570556640625,0.0636240386486053,0.000545331523614,0.0103041219763981,0.0020869518630206,0.000363296829164,4.23113815486e-05,still,queen
1772702333644518700,5.9545185546875,0.0709574502766132,-0.0051975412436295,0.0113662770234164,0.0018089180812239,0.002456008689478,-0.0004849943798035,still,queen
1772702333654465800,5.9644658203125,0.0687140552639961,0.0010425861218012,0.0103467989242111,0.0006253444589674,-0.0004262086004018,8.4901228547e-05,still,queen
1772702333664413700,5.97441357421875,0.0652729748994112,-0.0013614610789343,0.0086728994787961,0.0014583813026547,-0.0003058332949876,-9.24654304981e-05,still,queen
1772702333674361600,5.984361572265625,0.0591372486233711,-0.005725478674448,0.0144309698151715,0.0003714663907885,0.0018691821023821,-0.0016578130889683,still,queen
1772702333684309800,5.994309814453125,0.0556955837368965,0.0073972158455289,0.0073467426086834,0.0008513680659234,-0.0012046382762491,0.0010226587764918,still,queen
1772702333694256600,6.004256591796875,0.063477323654294,-0.0010109625742537,0.0089536081248079,0.0008168104104697,0.0020842442754656,-0.0002485327422618,still,queen
1772702333704204500,6.01420458984375,0.0655728346288204,-0.0085282702686497,0.0153183208511327,0.0018309419974684,-0.0005544158630073,0.0010798522271215,still,queen
1772702333714152400,6.02415234375,0.0510585715860128,0.0045692167448345,0.0084775230371684,0.002693961141631,-0.0002695806324481,-0.0014332230202853,still,queen
1772702333724100600,6.0341005859375,0.0627303046792745,0.0036539239642443,0.0102289572562905,-0.0014123669825494,3.98787669837e-05,0.001845926977694,still,queen
1772702333734047700,6.0440478515625,0.0573439354658126,0.0085561994551913,0.0090211854767927,0.0003729509189724,0.0001385672949254,-0.0005589460488408,still,queen
1772702333743995600,6.05399560546875,0.0579424858808517,-0.0050381494308356,0.011066691288643,0.0002738810144364,0.0011534979566931,-0.000260938424617,still,queen
1772702333753943800,6.06394384765625,0.0735047966718673,0.004782704231888,0.0132278548028378,0.0016087098047137,0.0005458020605146,4.08026389777e-05,still,queen
1772702333763891700,6.0738916015625,0.0655740036725997,0.0092835867145564,0.0048295938472263,-0.0006698910146951,-0.0021000485867261,-5.93322329223e-05,still,queen
1772702333773838600,6.083838623046875,0.0542015457868576,-0.0013388747877907,0.0096116313588339,0.0001635188236832,0.0011366126127541,0.0002279039472341,still,queen
1772702333783786500,6.093786376953125,0.058391398692131,-3.6423020251e-05,0.012067792339297,-0.0007699187844991,0.0016703102737665,-0.0001542596146464,still,queen
1772702333793734700,6.103734619140625,0.0610842910379171,0.0022921158254379,0.0009909621074853,-0.0003870516084134,-0.0006532678380608,-0.000316577963531,still,queen
1772702333803682600,6.1136826171875,0.0636281303018331,0.0008089874284807,0.0082804329874226,0.0017290962859988,0.0021702153608202,0.000984642188996,still,queen
1772702333813629700,6.123629638671875,0.0495621955484151,-0.0038985646413872,0.0085632228510221,-0.0013968553394079,0.0001630848273634,0.0007397751323878,still,queen
1772702333823577600,6.13357763671875,0.0616828414529561,0.010119119656668,0.0142403791465156,-0.0020573195070028,-0.0017679734155535,-0.0013492084108293,still,queen
1772702333833525800,6.14352587890625,0.0607844313085079,0.002904530369048,0.011599029758299,1.63572840392e-05,6.32107257843e-05,0.0027346350252628,still,queen
1772702333843473700,6.1534736328125,0.0549491492837667,-0.0026297457153908,0.015912862952979,-0.0004536905325949,1.87363475561e-05,0.000450974330306,still,queen
1772702333853420500,6.163420654296875,0.054948564761877,-0.0059334497361676,0.0178407988082559,0.0001859380863606,0.001028690021485,-0.0012901038862764,still,queen
1772702333863368400,6.173368408203125,0.0709603728860616,0.0031841601611813,0.0071705983071995,-0.0004367087967693,-0.0004136781208217,-0.0007545421831309,still,queen
1772702333873316600,6.183316650390625,0.064525371402502,0.0031239818060072,0.0076706339509401,-0.0001434981822967,0.001212737057358,0.0009461529552936,still,queen
1772702333883264500,6.193264404296875,0.0571942978620529,0.0014677070655394,0.0071302400389919,0.000782482791692,-0.0013185977004468,0.0001346878707408,still,queen
1772702333893211600,6.203211669921875,0.0564455253213644,0.003814110361482,0.0120037255435832,-0.0013527781702578,0.0011411174200475,0.0002182396128773,still,queen
1772702333903159600,6.21315966796875,0.0585410362958908,-0.0069981791911181,0.0070845263172988,0.0013556564226746,0.0001158006489276,0.0005327588878571,still,queen
1772702333913107700,6.223107666015625,0.06542436606884,-0.0043939149768557,0.0098381450075306,0.0015434841625392,0.0015229645650833,-0.0016467615496367,still,queen
1772702333923055600,6.2330556640625,0.0676689301252365,0.0090863060102099,0.006363224022137,0.0005208305083215,0.0007666270248591,0.0021522375755012,still,queen
1772702333933002800,6.243002685546875,0.055398062095046,0.0104395655163796,0.0138896740042138,-0.0008176718838512,-0.0009798239916563,0.0019931308925151,still,queen
1772702333942950700,6.25295068359375,0.0618324790567159,0.0100234087638091,0.0103496598848665,0.0007860837504267,0.0034255771897733,0.0013867290690541,still,queen
1772702333952898600,6.262898681640625,0.0595879150003194,0.0063550133162178,0.0073537180554529,-0.0017722593620419,-0.0006500580348074,-0.0004531261511147,still,queen
1772702333962846500,6.272846435546875,0.0540513236612081,0.0006343797802459,0.0146755842344951,-2.70898453891e-05,-0.0028287898749113,0.0012259967625141,still,queen
1772702333972793600,6.282793701171875,0.0565951629251241,0.0016680291103431,0.0074346857536176,-0.0024219481274485,0.000322519801557,-0.0010733008384704,still,queen
1772702333982741500,6.292741455078125,0.0550976178437471,0.0010761641644174,0.0137717992286081,-0.0020805308595299,0.0006146682426333,-0.000114562921226,still,queen
1772702333992689700,6.302689697265625,0.060933484390378,-0.0014427370210643,0.0110661604240362,-5.46942465007e-05,0.0019091316498816,-0.0013187183067202,still,queen
1772702334002637600,6.312637451171875,0.0509077649384736,0.000380455251527,0.0115860675287374,0.0019940754864364,0.0032095531933009,-0.0002425350248813,still,queen
1772702334012584700,6.322584716796875,0.0562947186738252,-0.0025216913641896,0.0029611239610705,-0.0008537247776985,0.0005627647042274,0.0001639863476157,still,queen
1772702334022532600,6.33253271484375,0.060933484390378,0.0067585069500375,0.0108249515297065,-0.0004449291154742,0.0006250822916626,-0.0013438954483717,still,queen
1772702334032480800,6.342480712890625,0.0574918195039033,0.0092071056785527,0.0074853142540901,0.0002640630118548,-0.0013831933028995,9.25734639167e-05,still,queen
1772702334042428400,6.352428466796875,0.0607844313085079,0.0069065690846415,0.0109674846808891,0.0008329139091074,0.0005670399405062,-0.0005263451021164,still,queen
1772702334052375600,6.36237548828125,0.0571942978620529,-0.0046629548763157,0.0109774660771421,0.0017663836479187,0.0030770197045058,0.0010242499411106,still,queen
1772702334062323500,6.372323486328125,0.0618348171442747,-0.0007271634970791,0.0109175993908662,0.0024414949584752,-0.00248659029603,-0.0004737782292068,still,queen
1772702334072271600,6.382271728515625,0.0486678770571947,0.0059763618627097,0.0104849287532677,0.0036983601748943,0.0005493345670402,0.0024848864413797,still,queen
1772702334082219500,6.392219482421875,0.0604910013198852,-0.0006860140693606,0.0163874456366989,0.004387586377561,0.0017163315787911,-0.0010102461092174,still,queen
1772702334092166700,6.402166748046875,0.0597451513886451,-0.0010050442901207,0.011420332740125,0.00336719234474,0.0007577589713037,0.0006243819370865,still,queen
1772702334102114600,6.412114501953125,0.0504693735212087,0.0043531948073999,0.0082942879828391,0.0045171454548835,-0.0020526750013232,-0.0018022905569523,still,queen
1772702334112062700,6.422062744140625,0.0664811816453933,-0.0061729575804667,-0.0021266561731055,-0.001056938432157,0.0005960096605122,-0.005839176941663,still,queen
1772702334122010600,6.4320107421875,0.067977557682991,-0.0108969538950594,-0.0068158232029119,-0.0014598746784031,0.0041199047118425,-0.0054447627626359,still,queen
1772702334131957500,6.44195751953125,0.0771042824685573,-0.0147592599129769,0.0131428000180225,-0.0075149196200072,-0.0011906451545655,-0.0053107859566807,still,queen
1772702334141905700,6.45190576171875,0.0579471620559692,-0.0025393274855799,0.0217157782197231,-0.008198820054531,0.0012959481682628,-0.0055464757606387,still,queen
1772702334151853600,6.461853515625,0.0570434912145137,-0.0032121806792682,0.0255819795280462,-0.0138524435460567,-0.0004995549097657,-0.0018790364265441,still,queen
1772702334161801500,6.471801513671875,0.0712520493090152,-0.0054045578907011,0.0289521866135066,-0.0148205030709505,-0.0015099584124982,0.0001739943400025,still,queen
1772702334171748600,6.48174853515625,0.0547837295889854,-0.0046613017753465,0.0215711615676642,-0.0205647107213735,-0.0012427307665348,7.39572569727e-05,still,queen
1772702334181696800,6.49169677734375,0.0604606061816215,0.0023959963250206,0.0126068630854832,-0.0198115687817335,-0.0021868213079869,0.0012428187765181,still,queen
1772702334191644700,6.501644775390625,0.0620960984289646,0.0167886696816189,0.0096952476718113,-0.0190837103873491,-0.0014131013303995,-0.0012002240400761,still,queen
1772702334201592600,6.511592529296875,0.0487684148222208,0.0137205782147357,0.0019147178973886,-0.0159979071468114,-0.0024735718034207,0.0026941164396703,still,queen
1772702334211539500,6.52153955078125,0.0551958175212144,0.0083341313694603,-0.0016614612305944,-0.0098358672112226,-0.0020919516682624,-0.0004724946338683,still,queen
1772702334221487600,6.531487548828125,0.0480079518437385,-4.29166931193e-05,0.0045338702951732,-0.0054794694297015,-0.0015683742240071,0.0010449746623635,still,queen
1772702334231435500,6.541435546875,0.0483066425293684,-0.0006413986094994,0.0142211721225467,0.0020275386050343,0.0003467355854809,-0.0019687006715685,still,queen
1772702334241383700,6.5513837890625,0.0454652816236019,0.0033852585241198,0.0296296200841898,0.0033364822156727,-0.0002484810538589,-0.0003215358592569,still,queen
1772702334251330600,6.56133056640625,0.0441220503211021,0.010190851452318,0.0352340593449887,0.008572612889111,-0.0005461918190121,-0.0008800427895039,still,queen
1772702334261278700,6.57127880859375,0.0490659364640712,0.0076418154234765,0.0119835686715436,0.0144976135343313,-0.0012146453373134,-0.0006946867797523,still,queen
1772702334271226600,6.5812265625,0.0466793335884809,-0.0005238092449726,-0.0046474924457026,0.0150859225541353,0.000616974197328,0.0003351718187332,still,queen
1772702334281174800,6.5911748046875,0.0591080225288867,-0.0144755019349977,-0.0262532983517739,0.0128126479685306,0.0056538106873631,-0.000904529588297,still,queen
1772702334291121700,6.60112158203125,0.055075406011939,-0.0040981971330242,-0.0176792675540142,0.01308233756572,0.0019224255811423,0.0012071337550878,still,queen
1772702334301069600,6.611069580078125,0.0622644407331943,0.0166800445082597,0.0127794956890516,0.0090162232518196,0.0005756649188697,-0.0022520462516695,still,queen
1772702334311017500,6.621017578125,0.0601736059337854,0.0033032382298959,0.0257139764438383,0.0069909472949802,0.0011141262948513,0.000253917183727,still,queen
1772702334320965600,6.630965576171875,0.0631692806184291,-0.0016718696018215,0.0377531180773861,0.004344830289483,-0.0002480805851519,0.0007386128418147,still,queen
1772702334330912500,6.64091259765625,0.0754395641267299,0.0032372237889794,0.023734125454945,-0.0011462145484983,-0.0003533563576638,0.0013659140095114,still,queen
1772702334340860700,6.650860595703125,0.0746890380203723,0.0135550078229047,0.0082911370445275,-0.0056030144914984,-0.0034231818281114,0.0008468641899526,still,queen
1772702334350808600,6.66080859375,0.0610679244250059,0.0014063231339678,-0.0080384192338504,-0.0087384665384888,6.87320716679e-05,0.0002864217385649,still,queen
1772702334360756700,6.6707568359375,0.0561246228039264,0.0080934362150728,-0.0077713281212374,-0.0108476895838975,0.000857560429722,-0.0006126614753156,still,queen
1772702334370703600,6.68070361328125,0.0619540596097707,0.0076789188637398,0.011232236564299,-0.0105812866240739,-0.0023199184797704,0.0015496434643864,still,queen
1772702334380651800,6.69065185546875,0.0558130726367235,-0.0056351837422233,0.0171402070826268,-0.0097186882048845,0.0007528369314968,0.0004321811720728,still,queen
1772702334390599400,6.700599365234375,0.0629910014420747,-0.0080992038021562,0.026707152199652,-0.0088843367993831,-0.0011209524236619,-0.0009416309185326,still,queen
1772702334400547600,6.710547607421875,0.0553553919970989,-0.0031632863365113,0.0381073634587111,-0.003616604488343,-0.0042190072126686,0.0012195240706205,still,queen
1772702334410495500,6.72049560546875,0.0403904625773429,-0.0112452558760764,0.0239693658327916,-6.60824589431e-05,-0.0030165663920342,0.0007161884568631,still,queen
1772702334420442600,6.730442626953125,0.049070028117299,0.0052593179008457,0.0014702871816931,0.0036559514701366,0.0024801981635391,-0.0008223198819905,still,queen
1772702334430390500,6.740390625,0.0520651182800531,0.0109544288364937,-0.0166829374349559,0.0026725379284471,0.0034938033204525,0.0001145359128713,still,queen
1772702334440338700,6.750338623046875,0.0549111553609371,0.0035284618205158,-0.0091160846605431,0.0088002048432827,0.0023204144090414,0.0035111312754452,still,queen
1772702334450286600,6.76028662109375,0.0478816951155662,0.0014816990582738,0.0077621641423145,0.0068315854296088,-0.0005350969731807,0.0010262625291943,still,queen
1772702334460233700,6.770233642578125,0.0496814380139112,0.0170800538436276,0.0206281976121477,0.0066944323480129,-0.0003990097902715,-3.55397351086e-05,still,queen
1772702334470181400,6.780181396484375,0.0535749383211135,0.0088008492654887,0.0223138948099222,0.0053353970870375,-8.05789604783e-05,0.0013676513917744,still,queen
1772702334480129500,6.790129638671875,0.0642015462756157,0.0029648000557674,0.0299386951665161,0.0045156758278608,-0.0019887336529791,0.0002949303016066,still,queen
1772702334490077400,6.800077392578125,0.0422065720885992,-0.0092511914154514,0.013898990963475,0.0031445743516087,-0.000670398119837,-0.0002584466710686,still,queen
1772702334500024600,6.810024658203125,0.0585614945620298,0.0105731424679048,-0.0061164336287474,0.3418294191360473,-0.0349689833819866,0.0489780753850936,still,queen
1772702334509972500,6.819972412109375,-0.41617607832551,0.2416495325028896,0.0998635007600299,0.8651348352432251,0.0818140059709549,0.1495916247367859,still,queen
1772702334519920600,6.829920654296875,-1.6318723032802342,0.5007913209460676,0.1795289937524125,0.2211617082357406,0.1877910494804382,0.0320149324834346,still,queen
1772702334529868300,6.839868408203125,1.725824260175228,-0.5016464764706791,-0.3409235246708616,-0.4663425087928772,0.0224905926734209,-0.046438880264759,still,queen
1772702334539815400,6.8498154296875,2.461787003651261,-0.5197666915835812,-0.1567981613052077,-0.2127413898706436,-0.2940953373908996,-0.0311475396156311,still,queen
1772702334549763300,6.859763427734375,-2.061492969590425,0.2959234859388321,0.5068745498498901,0.1971771568059921,-0.046547595411539,0.0024018972180783,still,queen
1772702334559711500,6.86971142578125,-0.3923573958426714,0.3473236740367487,-0.1835111952563747,0.1794721931219101,0.200689360499382,-0.0007238546386361,still,queen
1772702334569659400,6.879659423828125,0.5135527489721775,-0.0391747438117628,-0.2318668462929315,-0.1545310169458389,0.028569484129548,-0.0045952075161039,still,queen
1772702334579606500,6.8896064453125,0.8160609470635652,-0.3012961188878864,0.1647968136426061,-0.228788211941719,-0.1493539065122604,-0.0105417799204587,still,queen
1772702334589554400,6.899554443359375,-0.2170037515461444,-0.0374600351486355,0.1398455104006454,-0.2080339044332504,-0.0533241517841815,-0.0307767298072576,still,queen
1772702334599502600,6.909502685546875,0.0586392359733581,0.0245007236299803,-0.1558381571666337,-0.2243532240390777,0.0890817269682884,-0.0270573589950799,still,queen
